Folder: pyOrigin/charts/20230801/TGA/INSATURADAS (part 2)

File: ZCFA_fixed.txt
05/07/2023 14:07:08
User name: Gabs
Comments: programa 3
Time (min)	Weight (mg)	Deriv. Weight (%/°C)	Relative Mass (%)	Temperature (°C)	Balance Purge Flow (mL/min)	Sample Purge Flow (mL/min)
0.001533333	6.59986	0.05500293	100.0	22.98286	40.00727	60.01988
0.5875	6.587168	0.05774678	99.8077	25.64027	39.9975	60.0163
1.179167	6.563287	0.0722285	99.4459	31.39854	39.98464	60.01526
1.770834	6.534306	0.07542489	99.0067	37.17783	40.03661	59.95978
2.3625	6.506985	0.06886646	98.5928	42.86465	40.02592	60.01601
2.954166	6.481797	0.06472784	98.2111	48.59313	40.02931	60.00043
3.545833	6.457562	0.0636316	97.8439	54.39042	39.98913	59.98764
4.1375	6.432832	0.06507795	97.4692	60.23506	39.99556	60.02478
4.729166	6.406944	0.07010346	97.077	66.12182	40.01584	59.99028
5.320832	6.378019	0.08036768	96.6387	72.02238	40.02058	59.98671
5.9125	6.343618	0.09823822	96.1175	77.93706	39.99841	59.99537
6.504166	6.300636	0.1235944	95.4662	83.85884	40.01732	59.97842
7.095834	6.24686	0.1505067	94.6514	89.78747	40.00944	60.01455
7.6875	6.183485	0.1700536	93.6912	95.71405	40.02206	60.01995
8.279166	6.115123	0.1732838	92.6553	101.6475	40.00055	60.018
8.870834	6.049368	0.1555603	91.659	107.5796	39.99911	59.99463
9.4625	5.994426	0.1226836	90.8266	113.5111	40.00882	60.02444
10.05417	5.953244	0.09024132	90.2026	119.4318	39.995	59.9825
10.64583	5.923108	0.0669325	89.746	125.3541	40.01096	59.98896
11.2375	5.900255	0.05183467	89.3997	131.2749	40.01562	60.00126
11.82916	5.882184	0.04155274	89.1259	137.197	39.99817	59.9919
12.42084	5.86751	0.0347375	88.9036	143.1165	39.9978	59.98726
13.0125	5.855002	0.02972977	88.714	149.0369	40.00606	60.02361
13.60417	5.84425	0.02600917	88.5511	154.9566	40.0185	60.00332
14.19583	5.83464	0.02308778	88.4055	160.8806	39.98398	59.98238
14.7875	5.82608	0.02091468	88.2758	166.7983	40.01926	60.0056
15.37917	5.818312	0.01901823	88.1581	172.7173	40.0128	59.98578
15.97084	5.81126	0.01758248	88.0513	178.6381	40.00632	60.01089
16.5625	5.804678	0.01598692	87.9515	184.5536	39.99123	59.99549
17.15417	5.798768	0.01478562	87.862	190.4685	39.99828	60.00386
17.74583	5.79303	0.0134748	87.775	196.3819	39.99128	59.97646
18.3375	5.787937	0.01261856	87.6979	202.2974	40.04406	59.97988
18.92917	5.783334	0.01190576	87.6281	208.2115	39.99199	59.9895
19.52084	5.778816	0.01096068	87.5597	214.1248	39.99111	60.01102
20.1125	5.774688	0.01036788	87.4971	220.0413	39.99967	59.95726
20.70416	5.77068	0.009991866	87.4364	225.9532	40.00484	59.99067
21.29584	5.766906	0.009609281	87.3792	231.8662	39.9954	59.99639
21.8875	5.763381	0.008819089	87.3258	237.779	39.96906	59.99372
22.47916	5.75986	0.008732066	87.2725	243.6905	40.00592	60.02562
23.07083	5.756539	0.008221878	87.2221	249.5974	39.97824	59.97014
23.6625	5.753362	0.008119179	87.174	255.5135	39.9968	59.9943
24.25417	5.750332	0.007605189	87.1281	261.4286	40.042	60.012
24.84583	5.747314	0.007358799	87.0824	267.34	39.99573	60.01702
25.4375	5.744715	0.007015896	87.043	273.256	39.97746	60.00994
26.02917	5.741837	0.007043274	86.9994	279.1717	40.01532	60.0289
26.62083	5.739166	0.006636248	86.9589	285.087	39.99297	59.98752
27.2125	5.736499	0.006795649	86.9185	291.0027	39.9813	59.99224
27.80416	5.733871	0.006901768	86.8787	296.9125	39.98588	59.98428
28.39584	5.731163	0.006613565	86.8376	302.8297	40.00472	60.01478
28.9875	5.728669	0.006395922	86.7999	308.7413	39.98845	60.01724
29.57916	5.726154	0.006279146	86.7617	314.6542	40.01095	60.0034
30.17084	5.723786	0.00601892	86.7259	320.5666	39.97528	60.01339
30.7625	5.721424	0.00611806	86.6901	326.4792	40.0014	59.98962
31.35416	5.71904	0.005927027	86.654	332.3914	39.99078	59.99837
31.94584	5.716877	0.005449761	86.6212	338.2995	40.04628	60.0298
32.5375	5.714802	0.005450332	86.5897	344.21	40.00789	59.99582
33.12916	5.712796	0.00550853	86.5594	350.1232	39.9883	59.99864
33.72083	5.710484	0.005288429	86.5243	356.0332	40.01075	59.99758
34.3125	5.708574	0.00536572	86.4954	361.9544	39.99004	59.98868
34.90417	5.706306	0.005120708	86.461	367.8828	40.01728	60.01609
35.49584	5.704346	0.005002961	86.4313	373.8094	39.99867	60.03215
36.0875	5.702495	0.005019721	86.4033	379.7317	39.97848	59.98198
36.67916	5.700443	0.004800754	86.3722	385.6544	39.99518	60.03478
37.27083	5.698552	0.004795512	86.3435	391.5742	40.02114	59.99203
37.8625	5.6967	0.004628212	86.3155	397.4917	39.95261	60.00951
38.45416	5.694955	0.00458407	86.289	403.4115	39.99097	59.9717
39.04584	5.693122	0.00471393	86.2613	409.3315	39.99137	59.9991
39.6375	5.691284	0.004684443	86.2334	415.2502	39.98525	60.0147
40.22917	5.689607	0.00452035	86.208	421.1697	39.99866	59.98497
40.82084	5.687701	0.004811633	86.1791	427.088	39.99988	59.96998
41.4125	5.68585	0.004810234	86.1511	433.0084	40.02988	60.01302
42.00416	5.684138	0.004397781	86.1251	438.9278	39.97664	60.01759
42.59583	5.682169	0.00472105	86.0953	444.8478	40.04264	59.98635
43.1875	5.680646	0.004213164	86.0722	450.768	40.03454	60.01116
43.77917	5.678481	0.005051464	86.0394	456.6861	40.02398	59.9943
44.37084	5.67681	0.004413914	86.0141	462.6071	40.01364	60.01384
44.9625	5.67505	0.004750425	85.9874	468.5299	40.00159	60.0066
45.55416	5.673235	0.004742416	85.9599	474.4532	40.01434	59.95991
46.14583	5.67147	0.004306366	85.9332	480.3748	40.0001	60.00002
46.7375	5.669743	0.004209355	85.907	486.2954	39.9789	59.97466
47.32916	5.668208	0.004149184	85.8838	492.2172	40.00095	59.97693
47.92084	5.666328	0.004760307	85.8553	498.1366	39.99071	60.01865
48.5125	5.664449	0.004654051	85.8268	504.0582	40.01903	60.02804
49.10417	5.662732	0.004849422	85.8008	509.9787	40.04819	60.01484
49.69584	5.660832	0.004672957	85.772	515.8993	40.0005	59.99818
50.2875	5.658915	0.005075289	85.743	521.8212	39.99586	60.01633
50.87916	5.657011	0.004983944	85.7141	527.741	40.00444	59.97292
51.47083	5.654998	0.00523606	85.6836	533.6618	40.02692	60.01555
52.0625	5.652848	0.005692199	85.651	539.5822	39.98784	60.0045
52.65418	5.650571	0.00670095	85.6165	545.5006	40.02296	60.00288
53.24584	5.64769	0.007954731	85.5729	551.4232	39.99217	60.0165
53.8375	5.644459	0.008656772	85.5239	557.3443	40.0468	60.03171
54.42916	5.64091	0.008976659	85.4701	563.2635	40.00566	60.02924
55.02082	5.637434	0.008071511	85.4175	569.1851	39.9887	59.96278
55.6125	5.634534	0.006806518	85.3735	575.109	39.99687	60.00062
56.20418	5.632031	0.005061096	85.3356	581.0316	39.97881	59.9702
56.79582	5.630449	0.003687978	85.3116	586.9509	40.00244	60.01705
57.3875	5.629094	0.00334077	85.2911	592.873	39.98291	60.0231
57.97918	5.62795	0.0026911	85.2738	598.797	39.99009	59.99512
58.57084	5.626901	0.002595501	85.2579	604.7166	40.01209	60.02036
59.1625	5.626072	0.001686274	85.2453	610.6354	40.00208	60.02632
59.75416	5.62569	0.000912656	85.2395	616.5566	39.9947	60.01585
60.34582	5.625389	0.000670127	85.235	622.4788	40.00992	59.99062
60.9375	5.625317	0.000312032	85.2339	628.397	40.00498	60.0116
61.52918	5.624924	0.000271294	85.2279	634.319	40.01462	59.97474
62.12084	5.624838	0.000343527	85.2266	640.2387	39.98137	60.00285
62.7125	5.624563	0.000545031	85.2225	646.1606	39.99098	60.03178
63.30416	5.624641	0.000943304	85.2236	652.0818	39.97842	60.035
63.89582	5.624156	0.000445886	85.2163	658.0	40.00011	60.01068
64.4875	5.623547	0.001131088	85.2071	663.9224	40.01965	59.98586
65.07918	5.62325	0.001534095	85.2026	669.8456	39.99841	59.98184
65.67082	5.622436	0.0023913	85.1902	675.7662	40.00819	59.9753
66.2625	5.621586	0.001863355	85.1774	681.6869	39.98	59.97387
66.85416	5.620722	0.003350406	85.1643	687.6074	39.99836	60.0162
67.44582	5.619268	0.003992164	85.1422	693.5298	40.01327	60.03782
68.0375	5.617469	0.004946919	85.115	699.4489	39.99114	59.98394
68.62916	5.615453	0.005619605	85.0844	705.37	40.02718	60.0105
69.22082	5.613374	0.005143616	85.0529	711.2922	40.0232	59.97348
69.8125	5.61156	0.005254979	85.0254	717.2131	40.00656	60.00755
70.40418	5.609266	0.005070468	84.9907	723.1314	40.01298	60.0
70.99584	5.607654	0.004101421	84.9663	729.051	40.00376	59.97512
71.5875	5.606	0.004975906	84.9412	734.9722	39.99469	60.01309
72.17918	5.604368	0.002875533	84.9165	740.895	40.0099	60.02639
72.77084	5.603407	0.002824312	84.9019	746.8141	39.9916	60.014
73.3625	5.601861	0.00259267	84.8785	752.7322	39.99859	59.99488
73.95418	5.601451	0.002436373	84.8723	758.6532	40.00842	59.99091
74.54582	5.600303	0.001945538	84.8549	764.5726	39.9792	59.9788
75.1375	5.599828	0.00191067	84.8477	770.4951	39.99882	60.0193
75.72916	5.599078	0.001221079	84.8363	776.4175	39.99545	60.00043
76.32082	5.598292	0.001989738	84.8244	782.336	39.98148	60.02009
76.9125	5.597568	0.001831039	84.8134	788.2588	39.99133	60.02372
77.50416	5.59688	0.002515947	84.803	794.1749	39.98817	60.00611
78.09582	5.596162	0.002335316	84.7921	800.0941	40.005	59.99648
78.6875	5.594754	0.002670624	84.7708	806.013	39.98046	59.97998
79.27918	5.594098	0.002493936	84.7609	811.9346	40.00763	59.99789
79.87084	5.592493	0.004336469	84.7365	817.8538	40.03051	59.98241
80.4625	5.590852	0.004616955	84.7117	823.7757	40.0404	60.01294
81.05418	5.589032	0.00540757	84.6841	829.6922	39.98779	59.93782
81.64584	5.5866	0.00742831	84.6473	835.612	39.9887	59.98191
82.2375	5.583344	0.007267348	84.5979	841.5326	39.98523	60.03036
82.82918	5.580399	0.01000076	84.5533	847.4555	39.99026	59.99288
83.42082	5.576108	0.01254062	84.4883	853.3712	39.9812	59.94973
84.0125	5.570592	0.01520228	84.4047	859.2891	40.00186	60.01004
84.60416	5.564347	0.01782628	84.3101	865.2191	39.99959	60.0342
85.19582	5.556962	0.02031194	84.1982	871.1392	39.99959	60.03079
85.7875	5.548376	0.02136677	84.0681	877.0539	40.00019	60.01856
86.37916	5.540157	0.02025434	83.9436	882.9674	40.00402	60.01364
86.97082	5.533188	0.01609156	83.838	888.8869	40.0017	60.04148
87.5625	5.527551	0.01129684	83.7525	894.8081	39.96696	60.01368
88.15418	5.524154	0.006635016	83.7011	900.7338	39.98047	60.02896
88.74584	5.522304	0.003683366	83.673	906.6369	40.0148	59.97411
89.3375	5.521528	0.000906796	83.6613	912.5639	39.99954	59.99018
89.92918	5.520926	0.002424481	83.6522	918.4912	40.0939	60.00286
90.52084	5.520613	-0.00085791	83.6474	924.4098	40.00158	60.0101
91.1125	5.520886	-0.00024972	83.6516	930.3316	39.99211	59.97937
91.70418	5.520912	-0.00024853	83.652	936.2515	39.99303	59.9914
92.29582	5.521052	-0.00013586	83.6541	942.1655	39.99276	59.9879
92.6875	5.520899	0.000709186	83.6518	946.0816	40.00132	60.00451

File: ZSCBA.txt
08/02/2023 12:57:15
User name: Mateus
Comments:
Number	time(s)	mass(g)	Relative_mass(%)	Sample_T(C)	PV(C)	SV(C)
1.0	0.0	0.2412	100.0	27.75	66.0	66.0
13.0	22.0	0.2401	99.54395	38.5	96.0	68.0
25.0	46.0	0.24	99.50249	50.75	122.0	68.0
37.0	70.0	0.24	99.50249	59.0	131.0	68.0
49.0	94.0	0.2397	99.37811	64.75	134.0	68.0
61.0	118.001	0.2395	99.29519	69.25	136.0	68.0
74.0	144.001	0.2393	99.21227	72.5	136.0	68.0
92.0	180.001	0.239	99.08789	75.75	134.0	68.0
129.0	254.009	0.2382	98.75622	78.75	129.0	68.0
495.0	986.009	0.2359	97.80265	63.25	99.0	68.0
649.0	1294.009	0.236	97.84411	57.5	95.0	88.0
891.0	1780.15	0.2352	97.51244	82.0	131.0	129.0
909.0	1816.15	0.2353	97.5539	85.0	134.0	132.0
934.0	1866.15	0.235	97.42952	88.0	138.0	136.0
955.0	1908.15	0.2346	97.26368	91.25	142.0	140.0
976.0	1950.15	0.2346	97.26368	94.25	146.0	143.0
998.0	1994.151	0.2342	97.09784	97.25	148.0	147.0
1017.0	2032.151	0.234	97.01493	100.25	152.0	150.0
1037.0	2072.153	0.2337	96.89055	103.25	156.0	154.0
1058.0	2114.153	0.2334	96.76617	106.25	158.0	157.0
1081.0	2160.153	0.2333	96.72471	109.5	162.0	161.0
1098.0	2194.153	0.2331	96.64179	112.5	166.0	164.0
1120.0	2238.153	0.2327	96.47595	115.5	168.0	167.0
1137.0	2272.153	0.2325	96.39303	118.75	173.0	170.0
1160.0	2318.153	0.2321	96.2272	121.75	175.0	174.0
1183.0	2364.153	0.2318	96.10282	124.75	178.0	178.0
1200.0	2398.155	0.2315	95.97844	128.0	183.0	181.0
1223.0	2444.155	0.231	95.77114	131.0	185.0	185.0
1247.0	2492.155	0.2306	95.60531	134.0	189.0	189.0
1262.0	2522.155	0.2305	95.56385	137.0	192.0	191.0
1285.0	2568.155	0.2302	95.43947	140.0	195.0	195.0
1302.0	2602.155	0.2297	95.23217	143.25	200.0	198.0
1326.0	2650.155	0.2291	94.98342	146.25	203.0	202.0
1349.0	2696.155	0.2289	94.9005	149.25	206.0	206.0
1364.0	2726.155	0.2283	94.65174	152.5	209.0	208.0
1383.0	2764.155	0.228	94.52736	155.5	213.0	211.0
1406.0	2810.157	0.2275	94.32007	158.75	216.0	215.0
1425.0	2848.157	0.227	94.11277	161.75	219.0	219.0
1450.0	2898.158	0.2264	93.86401	165.0	222.0	223.0
1467.0	2932.158	0.2258	93.61526	168.25	226.0	226.0
1490.0	2978.158	0.2255	93.49088	171.75	230.0	229.0
1510.0	3018.158	0.2249	93.24212	175.0	233.0	233.0
1532.0	3062.158	0.2242	92.95191	178.25	237.0	236.0
1550.0	3098.158	0.2238	92.78607	181.25	240.0	239.0
1568.0	3134.158	0.2231	92.49585	184.75	243.0	242.0
1589.0	3176.16	0.2225	92.2471	187.75	245.0	246.0
1603.0	3204.16	0.222	92.0398	190.75	249.0	248.0
1621.0	3240.16	0.2215	91.8325	193.75	251.0	251.0
1646.0	3290.16	0.2205	91.41791	196.75	255.0	256.0
1666.0	3330.16	0.2199	91.16915	199.75	259.0	259.0
1684.0	3366.16	0.219	90.79602	202.75	263.0	262.0
1705.0	3408.161	0.2186	90.63018	205.75	266.0	265.0
1721.0	3440.163	0.218	90.38143	208.75	268.0	268.0
1739.0	3476.163	0.2172	90.04975	212.0	271.0	271.0
1763.0	3524.163	0.2165	89.75954	215.0	275.0	275.0
1781.0	3560.163	0.2158	89.46932	218.25	278.0	278.0
1797.0	3592.163	0.2154	89.30348	221.5	281.0	281.0
1816.0	3630.163	0.2152	89.22056	224.5	284.0	284.0
1830.0	3658.164	0.2146	88.97181	227.5	287.0	286.0
1850.0	3698.164	0.2137	88.59867	230.5	290.0	290.0
1873.0	3744.164	0.2132	88.39138	233.5	293.0	294.0
1888.0	3774.164	0.2127	88.18408	236.5	296.0	296.0
1905.0	3808.164	0.2123	88.01824	239.75	299.0	299.0
1923.0	3844.164	0.2117	87.76949	242.75	302.0	302.0
1948.0	3894.164	0.2112	87.56219	245.75	306.0	306.0
1963.0	3924.168	0.211	87.47927	248.75	309.0	309.0
1980.0	3958.168	0.2106	87.31343	251.75	311.0	311.0
1997.0	3992.168	0.2105	87.27197	254.75	314.0	314.0
2019.0	4036.168	0.21	87.06468	257.75	318.0	318.0
2035.0	4068.168	0.2098	86.98176	260.75	321.0	321.0
2052.0	4102.168	0.2097	86.9403	263.75	324.0	323.0
2069.0	4136.168	0.2094	86.81592	266.75	326.0	326.0
2091.0	4180.17	0.209	86.65008	270.0	329.0	330.0
2107.0	4212.17	0.2091	86.69154	273.25	333.0	333.0
2123.0	4244.17	0.2088	86.56716	276.25	335.0	335.0
2140.0	4278.17	0.2088	86.56716	279.25	338.0	338.0
2154.0	4306.17	0.2089	86.60862	282.5	341.0	341.0
2176.0	4350.17	0.2085	86.44279	285.5	344.0	344.0
2190.0	4378.173	0.2083	86.35987	288.5	347.0	347.0
2211.0	4420.173	0.2082	86.31841	291.75	350.0	350.0
2227.0	4452.174	0.2081	86.27695	295.0	353.0	353.0
2247.0	4492.178	0.208	86.23549	298.25	356.0	356.0
2272.0	4542.181	0.2079	86.19403	301.25	359.0	360.0
2286.0	4570.182	0.2077	86.11111	304.5	363.0	363.0
2303.0	4604.183	0.2078	86.15257	307.75	366.0	365.0
2317.0	6910.93	0.2047	84.86733	512.0	559.0	559.0
2333.0	6942.93	0.2048	84.90879	515.0	561.0	561.0
2352.0	6980.93	0.2046	84.82587	518.25	564.0	564.0
2373.0	7022.93	0.205	84.99171	521.5	567.0	568.0
2392.0	7060.93	0.2047	84.86733	525.5	571.0	571.0
2406.0	7088.932	0.2046	84.82587	528.75	574.0	573.0
2428.0	7132.933	0.2046	84.82587	531.75	577.0	577.0
2443.0	7162.933	0.2046	84.82587	534.75	580.0	580.0
2462.0	7200.933	0.2045	84.78441	537.75	583.0	583.0
2481.0	7238.933	0.2046	84.82587	540.75	585.0	586.0
2499.0	7274.934	0.2045	84.78441	544.0	589.0	589.0
2513.0	7302.934	0.2044	84.74295	547.0	591.0	591.0
2534.0	7344.934	0.2044	84.74295	550.0	595.0	595.0
2549.0	7374.935	0.2045	84.78441	553.0	597.0	597.0
2570.0	7416.937	0.2044	84.74295	557.0	600.0	601.0
2590.0	7456.937	0.2042	84.66003	560.5	604.0	604.0
2606.0	7488.942	0.2042	84.66003	563.75	607.0	607.0
2624.0	7524.947	0.2045	84.78441	566.75	610.0	610.0
2645.0	7566.947	0.2042	84.66003	569.75	613.0	613.0
2662.0	7600.947	0.2043	84.70149	572.75	616.0	616.0
2678.0	7632.949	0.2042	84.66003	575.75	619.0	619.0
2696.0	7668.954	0.2043	84.70149	578.75	622.0	622.0
2714.0	7704.958	0.2043	84.70149	581.75	625.0	625.0
2732.0	7740.958	0.2044	84.74295	584.75	628.0	628.0
2750.0	7776.961	0.2043	84.70149	587.75	630.0	631.0
2768.0	7812.961	0.2043	84.70149	591.0	634.0	634.0
2786.0	7848.961	0.2042	84.66003	594.0	637.0	637.0
2804.0	7884.964	0.2042	84.66003	597.0	640.0	640.0
2826.0	7928.965	0.2041	84.61857	600.5	643.0	644.0
2839.0	7954.969	0.2041	84.61857	604.0	646.0	646.0
2855.0	7986.972	0.2041	84.61857	607.0	649.0	649.0
2877.0	8030.973	0.204	84.57711	610.0	652.0	652.0
2897.0	8070.974	0.204	84.57711	613.0	656.0	656.0
2912.0	8100.974	0.2042	84.66003	616.5	658.0	658.0
2934.0	8144.974	0.2038	84.4942	619.5	662.0	662.0
2953.0	8182.98	0.204	84.57711	622.5	665.0	665.0
2972.0	8220.98	0.2042	84.66003	625.75	668.0	668.0
2990.0	8256.98	0.2038	84.4942	629.0	671.0	671.0
3004.0	8284.982	0.2039	84.53566	632.5	674.0	674.0
3023.0	8322.983	0.2039	84.53566	635.5	676.0	677.0
3042.0	8360.983	0.2039	84.53566	638.5	680.0	680.0
3064.0	8404.985	0.2038	84.4942	641.75	684.0	684.0
3085.0	8446.986	0.2037	84.45274	645.0	687.0	687.0
3103.0	8482.986	0.2037	84.45274	648.0	690.0	690.0
3123.0	8522.987	0.2037	84.45274	651.0	693.0	694.0
3136.0	8548.987	0.2037	84.45274	655.0	696.0	696.0
3159.0	8594.995	0.2038	84.4942	658.25	699.0	700.0
3180.0	8636.995	0.2037	84.45274	661.25	703.0	703.0
3199.0	8674.995	0.2036	84.41128	664.25	706.0	706.0
3219.0	8714.995	0.2036	84.41128	667.25	709.0	710.0
3239.0	8755.0	0.2036	84.41128	670.75	712.0	713.0
3256.0	8789.0	0.2036	84.41128	674.5	716.0	716.0
3275.0	8827.003	0.2035	84.36982	677.5	719.0	719.0
3292.0	8861.009	0.2034	84.32836	680.5	722.0	722.0
3310.0	8897.009	0.2036	84.41128	683.5	725.0	725.0
3332.0	8941.009	0.2037	84.45274	686.75	729.0	729.0
3348.0	8973.012	0.2037	84.45274	690.25	730.0	731.0
3368.0	9013.014	0.2037	84.45274	693.5	734.0	735.0
3388.0	9053.016	0.2037	84.45274	696.5	738.0	738.0
3406.0	9089.016	0.2036	84.41128	699.5	741.0	741.0
3426.0	9129.016	0.2036	84.41128	702.5	744.0	744.0
3438.0	9153.018	0.2037	84.45274	706.0	746.0	746.0
3461.0	9199.018	0.2036	84.41128	709.5	750.0	750.0
3484.0	9245.019	0.2037	84.45274	712.5	754.0	754.0
3503.0	9283.021	0.2036	84.41128	715.5	757.0	757.0
3518.0	9313.021	0.2037	84.45274	718.75	759.0	760.0
3543.0	9363.021	0.2035	84.36982	722.5	764.0	764.0
3566.0	9409.021	0.2038	84.4942	725.75	767.0	768.0
3585.0	9447.021	0.2037	84.45274	728.75	770.0	771.0
3600.0	9477.021	0.2037	84.45274	731.75	773.0	773.0
3624.0	9525.024	0.2037	84.45274	735.5	777.0	777.0
3643.0	9563.025	0.2035	84.36982	738.5	781.0	781.0
3662.0	9601.025	0.2037	84.45274	741.5	783.0	784.0
3679.0	9635.025	0.2035	84.36982	745.75	787.0	787.0
3707.0	9691.025	0.2033	84.2869	748.75	791.0	791.0
3732.0	9741.026	0.2035	84.36982	751.75	794.0	795.0
3744.0	9765.026	0.2035	84.36982	755.5	797.0	797.0
3768.0	9813.026	0.2034	84.32836	758.75	801.0	801.0
3789.0	9855.026	0.2035	84.36982	762.0	805.0	805.0
3808.0	9893.026	0.2035	84.36982	765.0	808.0	808.0
3824.0	9925.026	0.2035	84.36982	768.75	811.0	811.0
3853.0	9983.028	0.2034	84.32836	772.0	815.0	816.0
3870.0	10017.028	0.2035	84.36982	775.0	818.0	819.0
3883.0	10043.028	0.2034	84.32836	778.75	821.0	821.0
3916.0	10109.028	0.2033	84.2869	781.75	824.0	826.0
3935.0	10147.028	0.2035	84.36982	785.75	828.0	829.0
3959.0	10195.028	0.2032	84.24544	789.5	833.0	833.0
3979.0	10235.028	0.2036	84.41128	792.5	837.0	837.0
3996.0	10269.029	0.2035	84.36982	796.0	839.0	840.0
4020.0	10317.029	0.2014	83.49917	799.5	843.0	844.0
4044.0	10365.029	0.2034	84.32836	802.75	847.0	848.0
4060.0	10397.029	0.2034	84.32836	806.75	851.0	850.0
4088.0	10453.031	0.2033	84.2869	810.0	854.0	855.0
4108.0	10493.032	0.2033	84.2869	813.0	858.0	858.0
4123.0	10523.032	0.2023	83.87231	816.25	861.0	861.0
4148.0	10573.033	0.2034	84.32836	819.25	864.0	865.0
4164.0	10605.033	0.2031	84.20398	822.25	867.0	868.0
4187.0	10651.034	0.2035	84.36982	825.75	871.0	872.0
4207.0	10691.034	0.2029	84.12106	829.0	875.0	875.0
4225.0	10727.034	0.2033	84.2869	832.5	878.0	878.0
4246.0	10769.034	0.2034	84.32836	835.5	881.0	882.0
4269.0	10815.037	0.2028	84.0796	838.75	885.0	885.0
4288.0	10853.037	0.2033	84.2869	842.0	889.0	889.0
4314.0	10905.037	0.2033	84.2869	845.25	892.0	893.0
4332.0	10941.037	0.2033	84.2869	848.5	895.0	896.0
4352.0	10981.038	0.2029	84.12106	851.75	898.0	899.0
4369.0	11015.038	0.2032	84.24544	850.5	901.0	900.0