Folder: pyOrigin/charts/20230801/TGA/INSATURADAS

File: STD 4A.txt
24/05/2023 18:38:10
User name: Gabs
Comments: Zeólitas Mariana
Number	time(s)	mass(g)	Relative_mass(%)	Sample_T(C)	PV(C)	SV(C)
1.0	0.0	0.1316	100.0	68.5	112.0	64.0
74.0	144.0	0.1313	99.77204	64.5	106.0	64.0
153.0	302.0	0.131	99.54407	60.5	100.0	64.0
246.0	488.0	0.131	99.54407	56.5	96.0	64.0
353.0	702.0	0.131	99.54407	52.5	91.0	76.0
639.0	1274.0	0.1302	98.93617	70.25	120.0	119.0
673.0	1342.0	0.13	98.78419	74.25	124.0	124.0
706.0	1408.0	0.1297	98.55623	78.25	129.0	129.0
738.0	1472.0	0.1295	98.40426	82.25	134.0	134.0
774.0	1544.0	0.1292	98.17629	86.75	140.0	139.0
805.0	1606.0	0.1289	97.94833	91.0	146.0	144.0
838.0	1672.0	0.1286	97.72036	95.0	150.0	149.0
870.0	1736.0	0.1283	97.4924	99.0	155.0	154.0
901.0	1798.0	0.1279	97.18845	103.0	159.0	158.0
935.0	1866.0	0.1276	96.96049	107.0	163.0	163.0
968.0	1932.0	0.1272	96.65653	111.25	168.0	168.0
999.0	1994.0	0.1269	96.42857	115.25	173.0	173.0
1022.0	2040.0	0.1266	96.20061	119.5	179.0	176.0
1056.0	2108.0	0.1262	95.89666	123.5	184.0	181.0
1087.0	2170.0	0.1258	95.59271	127.5	188.0	186.0
1120.0	2236.0	0.1254	95.28875	131.5	192.0	191.0
1153.0	2302.001	0.125	94.9848	135.5	196.0	196.0
1188.0	2372.001	0.1246	94.68085	139.5	201.0	201.0
1220.0	2436.001	0.1242	94.3769	143.75	206.0	206.0
1245.0	2486.001	0.1238	94.07295	147.75	210.0	210.0
1280.0	2556.001	0.1233	93.69301	151.75	215.0	215.0
1307.0	2610.001	0.1229	93.38906	155.75	219.0	219.0
1338.0	2672.001	0.1225	93.08511	159.75	224.0	224.0
1367.0	2730.001	0.122	92.70517	163.75	229.0	228.0
1397.0	2790.001	0.1215	92.32523	167.75	233.0	233.0
1430.0	2856.001	0.1209	91.8693	171.75	237.0	238.0
1458.0	2912.001	0.1203	91.41337	176.0	242.0	242.0
1491.0	2978.001	0.1197	90.95745	180.0	246.0	247.0
1519.0	3034.001	0.1191	90.50152	184.25	250.0	251.0
1550.0	3096.001	0.1184	89.9696	188.25	255.0	255.0
1577.0	3150.001	0.1178	89.51368	192.5	260.0	260.0
1612.0	3220.001	0.117	88.90578	196.75	264.0	265.0
1636.0	3268.001	0.1164	88.44985	200.75	268.0	268.0
1670.0	3336.001	0.1155	87.76596	204.75	273.0	273.0
1698.0	3392.001	0.1148	87.23404	209.25	277.0	278.0
1720.0	3436.001	0.1143	86.8541	213.25	281.0	281.0
1754.0	3504.001	0.1134	86.17021	217.25	286.0	286.0
1777.0	3550.001	0.1128	85.71429	221.25	290.0	289.0
1810.0	3616.001	0.112	85.10638	225.25	294.0	294.0
1836.0	3668.001	0.1114	84.65046	229.5	298.0	298.0
1859.0	3714.001	0.1109	84.27052	233.5	302.0	302.0
1889.0	3774.001	0.1102	83.7386	237.5	307.0	306.0
1916.0	3828.001	0.1097	83.35866	241.75	310.0	310.0
1942.0	3880.001	0.1092	82.97872	246.0	314.0	314.0
1972.0	3940.002	0.1087	82.59878	250.0	319.0	319.0
1997.0	3990.002	0.1083	82.29483	254.0	323.0	322.0
2023.0	4042.002	0.108	82.06687	258.0	326.0	326.0
2053.0	4102.002	0.1076	81.76292	262.0	331.0	331.0
2078.0	4152.002	0.1074	81.61094	266.0	335.0	335.0
2104.0	4204.002	0.1071	81.38298	270.25	338.0	338.0
2134.0	4264.002	0.1069	81.231	274.25	341.0	343.0
2161.0	4318.002	0.1066	81.00304	278.25	347.0	347.0
2185.0	4366.002	0.1064	80.85106	282.25	351.0	351.0
2212.0	4420.002	0.1062	80.69909	286.25	355.0	355.0
2244.0	4484.002	0.106	80.54711	290.25	359.0	359.0
2268.0	4532.002	0.1058	80.39514	294.25	363.0	363.0
2291.0	4578.002	0.1056	80.24316	298.25	366.0	366.0
2315.0	4626.002	0.1056	80.24316	302.25	370.0	370.0
2341.0	4678.002	0.1053	80.0152	306.5	374.0	374.0
2374.0	4744.002	0.1052	79.93921	310.75	379.0	379.0
2399.0	4794.002	0.105	79.78723	315.0	383.0	383.0
2423.0	4842.002	0.1049	79.71125	319.0	386.0	386.0
2447.0	4890.002	0.1047	79.55927	323.0	390.0	390.0
2471.0	4938.006	0.1046	79.48328	327.0	393.0	393.0
2503.0	5002.006	0.1044	79.33131	331.5	398.0	398.0
2527.0	5050.006	0.1042	79.17933	335.5	402.0	402.0
2551.0	5098.006	0.1041	79.10334	339.5	406.0	405.0
2575.0	5146.006	0.1039	78.95137	343.5	409.0	409.0
2598.0	5192.006	0.1038	78.87538	347.5	413.0	412.0
2623.0	5242.006	0.1036	78.7234	351.5	416.0	416.0
2646.0	5288.006	0.1035	78.64742	355.5	420.0	420.0
2676.0	5348.006	0.1033	78.49544	359.5	424.0	424.0
2702.0	5400.006	0.1031	78.34347	363.5	428.0	428.0
2725.0	5446.006	0.103	78.26748	367.5	432.0	431.0
2749.0	5494.006	0.1028	78.1155	371.5	435.0	435.0
2773.0	5542.006	0.1026	77.96353	375.5	439.0	439.0
2798.0	5592.006	0.1025	77.88754	379.5	442.0	442.0
2822.0	5640.006	0.1023	77.73556	383.5	446.0	446.0
2848.0	5692.006	0.1022	77.65957	388.0	450.0	450.0
2876.0	5748.006	0.102	77.5076	392.5	454.0	454.0
2902.0	5800.006	0.1018	77.35562	396.75	458.0	458.0
2932.0	5860.006	0.1016	77.20365	401.0	463.0	462.0
2956.0	5908.006	0.1015	77.12766	405.0	466.0	466.0
2982.0	5960.006	0.1013	76.97568	409.25	470.0	470.0
3007.0	6010.006	0.1012	76.8997	413.25	474.0	474.0
3033.0	6062.006	0.101	76.74772	417.25	477.0	478.0
3056.0	6108.006	0.1009	76.67173	421.5	481.0	481.0
3078.0	6152.006	0.1007	76.51976	425.5	485.0	484.0
3104.0	6204.008	0.1006	76.44377	429.5	488.0	488.0
3128.0	6254.064	0.1005	76.36778	433.5	492.0	492.0
3151.0	6300.064	0.1003	76.21581	437.75	495.0	495.0
3177.0	6352.064	0.1002	76.13982	441.75	499.0	499.0
3200.0	6398.064	0.1	75.98784	445.75	503.0	503.0
3225.0	6448.064	0.0999	75.91185	449.75	506.0	507.0
3250.0	6498.066	0.0998	75.83587	454.0	510.0	510.0
3275.0	6548.066	0.0996	75.68389	458.0	514.0	514.0
3301.0	6600.066	0.0995	75.6079	462.25	518.0	518.0
3326.0	6650.066	0.0994	75.53191	466.25	521.0	522.0
3349.0	6696.066	0.0992	75.37994	470.25	525.0	525.0
3376.0	6750.066	0.0991	75.30395	474.5	529.0	529.0
3403.0	6804.066	0.099	75.22796	479.0	533.0	533.0
3428.0	6854.066	0.0989	75.15198	483.0	537.0	537.0
3453.0	6904.066	0.0987	75.0	487.0	541.0	541.0
3478.0	6954.066	0.0986	74.92401	491.25	544.0	544.0
3503.0	7004.066	0.0985	74.84802	495.25	548.0	548.0
3527.0	7052.066	0.0984	74.77204	499.25	552.0	552.0
3553.0	7104.066	0.0983	74.69605	503.5	556.0	556.0
3583.0	7164.066	0.0982	74.62006	507.75	560.0	560.0
3605.0	7208.066	0.0981	74.54407	511.75	563.0	563.0
3631.0	7260.066	0.098	74.46809	515.75	567.0	567.0
3656.0	7310.066	0.0979	74.3921	520.0	571.0	571.0
3683.0	7364.066	0.0978	74.31611	524.25	575.0	575.0
3709.0	7416.066	0.0977	74.24012	528.5	579.0	579.0
3736.0	7470.066	0.0977	74.24012	532.75	583.0	583.0
3762.0	7522.066	0.0976	74.16413	537.0	586.0	587.0
3788.0	7574.066	0.0975	74.08815	541.0	591.0	591.0
3815.0	7628.066	0.0974	74.01216	545.0	595.0	595.0
3842.0	7682.066	0.0973	73.93617	549.0	598.0	599.0
3860.0	7718.066	0.0972	73.86018	554.25	602.0	602.0
3893.0	7784.066	0.0972	73.86018	558.25	606.0	607.0
3920.0	7838.066	0.0971	73.78419	562.5	610.0	611.0
3946.0	7890.066	0.097	73.70821	566.5	614.0	615.0
3971.0	7940.066	0.0969	73.63222	570.5	618.0	618.0
3995.0	7988.066	0.0969	73.63222	574.5	622.0	622.0
4020.0	8038.066	0.0968	73.55623	578.5	626.0	626.0
4049.0	8096.066	0.0967	73.48024	582.5	630.0	630.0
4074.0	8146.066	0.0966	73.40426	586.5	633.0	634.0
4098.0	8194.066	0.0966	73.40426	590.5	637.0	637.0
4128.0	8254.066	0.0965	73.32827	594.75	641.0	642.0
4148.0	8294.066	0.0964	73.25228	599.25	645.0	645.0
4174.0	8346.066	0.0963	73.17629	603.25	648.0	649.0
4202.0	8402.066	0.0962	73.1003	607.25	653.0	653.0
4231.0	8460.066	0.0962	73.1003	611.25	657.0	657.0
4261.0	8520.066	0.0961	73.02432	616.25	662.0	662.0
4288.0	8574.066	0.096	72.94833	620.25	666.0	666.0
4321.0	8640.066	0.0959	72.87234	624.5	670.0	671.0
4338.0	8674.066	0.0959	72.87234	629.5	674.0	673.0
4372.0	8742.066	0.0958	72.79635	633.5	678.0	678.0
4403.0	8804.066	0.0957	72.72036	638.25	683.0	683.0
4433.0	8864.066	0.0956	72.64438	642.75	687.0	687.0
4462.0	8922.066	0.0956	72.64438	646.75	691.0	692.0
4481.0	8960.066	0.0955	72.56839	651.25	695.0	695.0
4514.0	9026.066	0.0954	72.4924	655.25	700.0	700.0
4542.0	9082.066	0.0953	72.41641	659.25	703.0	704.0
4578.0	9154.066	0.0952	72.34043	664.0	709.0	709.0
4603.0	9204.068	0.0952	72.34043	668.0	712.0	713.0
4629.0	9256.068	0.0951	72.26444	672.75	716.0	717.0
4656.0	9310.068	0.095	72.18845	677.0	720.0	721.0
4689.0	9376.068	0.095	72.18845	681.25	725.0	726.0
4716.0	9430.068	0.0949	72.11246	685.75	729.0	730.0
4737.0	9472.068	0.0948	72.03647	690.0	733.0	733.0
4769.0	9536.068	0.0947	71.96049	694.0	737.0	738.0
4799.0	9596.068	0.0946	71.8845	698.5	742.0	742.0
4829.0	9656.068	0.0946	71.8845	703.75	747.0	747.0
4867.0	9732.068	0.0945	71.80851	708.25	752.0	752.0
4893.0	9784.068	0.0945	71.80851	712.5	756.0	756.0
4917.0	9832.068	0.0944	71.73252	717.25	761.0	760.0
4951.0	9900.068	0.0943	71.65653	721.5	766.0	765.0
4981.0	9960.068	0.0942	71.58055	726.0	770.0	770.0
5009.0	10016.068	0.0941	71.50456	730.5	773.0	774.0
5036.0	10070.068	0.0941	71.50456	734.5	778.0	778.0
5072.0	10142.068	0.094	71.42857	738.5	783.0	783.0
5089.0	10176.068	0.094	71.42857	743.0	785.0	786.0
5121.0	10240.068	0.0939	71.35258	747.0	791.0	791.0
5158.0	10314.068	0.0938	71.2766	751.25	795.0	796.0
5175.0	10348.068	0.0937	71.20061	756.25	798.0	799.0
5218.0	10434.068	0.0936	71.12462	760.75	804.0	805.0
5241.0	10480.068	0.0936	71.12462	765.0	808.0	808.0
5280.0	10558.068	0.0935	71.04863	770.0	814.0	814.0
5310.0	10618.068	0.0935	71.04863	774.25	818.0	819.0
5342.0	10682.068	0.0934	70.97264	778.75	822.0	824.0
5377.0	10752.068	0.0933	70.89666	783.25	828.0	829.0
5405.0	10808.068	0.0932	70.82067	788.25	833.0	833.0
5438.0	10874.068	0.0932	70.82067	792.5	838.0	838.0
5457.0	10912.068	0.0931	70.74468	797.5	842.0	841.0
5502.0	11002.068	0.093	70.66869	801.5	848.0	848.0
5530.0	11058.068	0.093	70.66869	806.0	851.0	852.0
5567.0	11132.068	0.0929	70.59271	810.75	856.0	857.0
5606.0	11210.068	0.0928	70.51672	815.75	862.0	863.0
5632.0	11262.068	0.0927	70.44073	820.5	866.0	867.0
5665.0	11328.068	0.0927	70.44073	824.75	871.0	872.0
5694.0	11386.068	0.0926	70.36474	829.25	876.0	876.0
5725.0	11448.068	0.0925	70.28875	833.25	880.0	881.0
5754.0	11506.068	0.0925	70.28875	838.25	885.0	885.0
5791.0	11580.068	0.0924	70.21277	842.25	890.0	891.0
5818.0	11634.068	0.0924	70.21277	846.75	895.0	895.0
5854.0	11706.068	0.0923	70.13678	851.25	900.0	900.0
5855.0	11708.068	0.0923	70.13678	851.5	901.0	900.0

File: STD 5A.txt
23/05/2023 21:00:42
User name: Gabs
Comments: Zeólitas - Mariana
Number	time(s)	mass(g)	Relative_mass(%)	Sample_T(C)	PV(C)	SV(C)
1.0	0.0	0.1647	100.0	23.5	60.0	60.0
17.0	30.001	0.1633	99.14997	41.25	102.0	62.0
33.0	62.009	0.1632	99.08925	53.25	122.0	63.0
49.0	94.009	0.1632	99.08925	60.25	127.0	63.0
67.0	130.009	0.1629	98.9071	65.25	127.0	63.0
93.0	182.009	0.1626	98.72495	69.25	124.0	63.0
526.0	1048.009	0.1598	97.02489	72.0	120.0	120.0
556.0	1108.009	0.1596	96.90346	76.0	127.0	125.0
587.0	1170.009	0.1594	96.78203	80.0	132.0	130.0
618.0	1232.009	0.1592	96.6606	84.25	137.0	136.0
649.0	1294.009	0.1589	96.47845	88.25	141.0	141.0
681.0	1358.009	0.1586	96.2963	92.25	146.0	146.0
708.0	1412.009	0.1583	96.11415	96.25	151.0	151.0
736.0	1468.009	0.158	95.932	100.25	156.0	155.0
762.0	1520.009	0.1577	95.74985	104.25	161.0	159.0
792.0	1580.009	0.1573	95.50698	108.5	166.0	164.0
824.0	1644.009	0.1569	95.26412	112.75	171.0	170.0
851.0	1698.009	0.1566	95.08197	116.75	174.0	174.0
881.0	1758.009	0.1561	94.77838	121.0	179.0	179.0
911.0	1818.009	0.1557	94.53552	125.0	184.0	184.0
932.0	1860.009	0.1554	94.35337	129.0	189.0	188.0
961.0	1918.009	0.1549	94.04979	133.25	194.0	193.0
991.0	1978.009	0.1544	93.74621	137.25	199.0	198.0
1021.0	2038.009	0.1539	93.44262	141.25	202.0	202.0
1050.0	2096.009	0.1534	93.13904	145.25	207.0	207.0
1076.0	2148.009	0.1529	92.83546	149.5	213.0	212.0
1104.0	2204.009	0.1524	92.53188	153.5	216.0	216.0
1135.0	2266.009	0.1518	92.16758	157.75	221.0	221.0
1159.0	2314.009	0.1513	91.864	162.0	226.0	225.0
1190.0	2376.009	0.1506	91.43898	166.0	230.0	231.0
1212.0	2420.009	0.1502	91.19611	170.0	234.0	234.0
1240.0	2476.009	0.1495	90.7711	174.0	239.0	239.0
1266.0	2528.009	0.1489	90.4068	178.25	243.0	243.0
1294.0	2584.009	0.1482	89.98179	182.25	248.0	248.0
1319.0	2634.009	0.1475	89.55677	186.5	252.0	252.0
1348.0	2692.009	0.1467	89.07104	190.5	257.0	257.0
1371.0	2738.009	0.146	88.64602	194.5	261.0	261.0
1399.0	2794.009	0.1452	88.16029	198.5	265.0	265.0
1423.0	2842.009	0.1445	87.73528	202.75	269.0	269.0
1448.0	2892.009	0.1437	87.24954	206.75	274.0	273.0
1479.0	2954.009	0.1427	86.64238	211.75	278.0	279.0
1505.0	3006.009	0.1418	86.09593	216.0	283.0	283.0
1532.0	3060.009	0.1409	85.54948	220.25	287.0	287.0
1556.0	3108.009	0.14	85.00304	224.5	291.0	291.0
1583.0	3162.009	0.1391	84.45659	228.75	296.0	296.0
1606.0	3208.009	0.1383	83.97086	232.75	300.0	300.0
1634.0	3264.009	0.1373	83.36369	236.75	304.0	304.0
1655.0	3306.009	0.1366	82.93868	240.75	308.0	308.0
1679.0	3354.009	0.1358	82.45294	244.75	312.0	312.0
1709.0	3414.009	0.1349	81.9065	249.0	316.0	317.0
1730.0	3456.009	0.1342	81.48148	253.0	320.0	320.0
1753.0	3502.009	0.1335	81.05647	257.25	324.0	324.0
1775.0	3546.009	0.1329	80.69217	261.25	329.0	328.0
1804.0	3604.009	0.1322	80.26715	265.75	333.0	332.0
1826.0	3648.009	0.1317	79.96357	269.75	336.0	336.0
1850.0	3696.009	0.1313	79.7207	273.75	339.0	340.0
1879.0	3754.009	0.1307	79.35641	278.0	344.0	345.0
1899.0	3794.009	0.1304	79.17426	282.25	348.0	348.0
1926.0	3848.009	0.13	78.93139	287.0	353.0	353.0
1947.0	3890.009	0.1297	78.74924	291.0	356.0	356.0
1976.0	3948.009	0.1293	78.50638	295.25	361.0	361.0
1999.0	3994.009	0.1291	78.38494	299.25	364.0	365.0
2021.0	4038.009	0.1289	78.26351	303.5	368.0	369.0
2044.0	4084.009	0.1287	78.14208	307.75	372.0	372.0
2066.0	4128.009	0.1285	78.02064	311.75	377.0	376.0
2095.0	4186.009	0.1283	77.89921	316.5	381.0	381.0
2117.0	4230.009	0.1281	77.77778	320.5	384.0	384.0
2139.0	4274.009	0.1279	77.65634	324.5	388.0	388.0
2161.0	4318.009	0.1278	77.59563	328.5	392.0	392.0
2183.0	4362.009	0.1276	77.4742	332.75	395.0	395.0
2211.0	4418.009	0.1275	77.41348	336.75	400.0	400.0
2231.0	4458.009	0.1273	77.29205	340.75	404.0	403.0
2255.0	4506.009	0.1272	77.23133	345.0	407.0	407.0
2278.0	4552.009	0.127	77.1099	349.25	411.0	411.0
2301.0	4598.009	0.1268	76.98846	353.5	415.0	415.0
2323.0	4642.009	0.1267	76.92775	357.75	419.0	419.0
2344.0	4684.009	0.1266	76.86703	361.75	422.0	422.0
2375.0	4746.009	0.1264	76.7456	366.25	427.0	427.0
2396.0	4788.009	0.1263	76.68488	370.25	431.0	431.0
2418.0	4832.009	0.1262	76.62417	374.5	434.0	434.0
2440.0	4876.009	0.126	76.50273	378.5	438.0	438.0
2463.0	4922.009	0.1259	76.44202	382.75	442.0	442.0
2487.0	4970.009	0.1257	76.32058	387.25	446.0	446.0
2509.0	5014.009	0.1256	76.25987	391.25	449.0	450.0
2531.0	5058.009	0.1255	76.19915	395.25	453.0	453.0
2554.0	5104.009	0.1253	76.07772	399.5	457.0	457.0
2586.0	5168.009	0.1252	76.017	404.25	462.0	462.0
2610.0	5216.009	0.125	75.89557	408.5	466.0	466.0
2629.0	5254.009	0.1249	75.83485	412.5	469.0	469.0
2654.0	5304.009	0.1247	75.71342	417.0	474.0	474.0
2676.0	5348.009	0.1246	75.6527	421.0	477.0	477.0
2698.0	5392.009	0.1245	75.59199	425.25	481.0	481.0
2720.0	5436.009	0.1243	75.47055	429.25	484.0	485.0
2744.0	5484.009	0.1241	75.34912	433.5	488.0	489.0
2764.0	5524.009	0.124	75.2884	437.5	492.0	492.0
2788.0	5572.009	0.1239	75.22769	441.75	496.0	496.0
2810.0	5616.009	0.1237	75.10625	445.75	499.0	499.0
2832.0	5660.009	0.1236	75.04554	449.75	503.0	503.0
2854.0	5704.009	0.1234	74.9241	453.75	507.0	507.0
2879.0	5754.009	0.1232	74.80267	458.5	511.0	511.0
2902.0	5800.009	0.1231	74.74196	462.5	515.0	515.0
2926.0	5848.009	0.1229	74.62052	466.5	518.0	519.0
2947.0	5890.009	0.1228	74.55981	470.75	522.0	522.0
2971.0	5938.009	0.1227	74.49909	475.25	526.0	526.0
2995.0	5986.009	0.1225	74.37766	479.5	530.0	530.0
3018.0	6032.009	0.1224	74.31694	483.5	534.0	534.0
3041.0	6078.009	0.1222	74.19551	487.5	538.0	538.0
3065.0	6126.009	0.1221	74.13479	491.75	542.0	542.0
3088.0	6172.009	0.1219	74.01336	496.0	546.0	546.0
3114.0	6224.009	0.1218	73.95264	500.25	550.0	550.0
3137.0	6270.009	0.1217	73.89192	504.25	553.0	554.0
3163.0	6322.009	0.1215	73.77049	509.0	558.0	558.0
3186.0	6368.009	0.1214	73.70978	513.0	562.0	562.0
3214.0	6424.009	0.1213	73.64906	517.75	566.0	567.0
3238.0	6472.009	0.1212	73.58834	522.0	570.0	571.0
3262.0	6520.009	0.1211	73.52763	526.0	575.0	575.0
3288.0	6572.009	0.1209	73.40619	530.25	578.0	579.0
3313.0	6622.009	0.1209	73.40619	534.25	582.0	583.0
3333.0	6662.009	0.1208	73.34548	538.5	586.0	586.0
3358.0	6712.009	0.1207	73.28476	542.75	590.0	590.0
3381.0	6758.009	0.1206	73.22404	547.0	594.0	594.0
3405.0	6806.009	0.1205	73.16333	551.0	598.0	598.0
3425.0	6846.009	0.1204	73.10261	556.0	602.0	602.0
3451.0	6898.009	0.1203	73.04189	560.0	606.0	606.0
3474.0	6944.009	0.1203	73.04189	564.5	610.0	610.0
3503.0	7002.009	0.1202	72.98118	569.0	614.0	615.0
3529.0	7054.009	0.1201	72.92046	573.0	618.0	619.0
3551.0	7098.009	0.1201	72.92046	577.0	622.0	623.0
3574.0	7144.009	0.12	72.85974	581.0	626.0	626.0
3597.0	7190.009	0.1199	72.79903	585.0	630.0	630.0
3621.0	7238.009	0.1199	72.79903	589.0	634.0	634.0
3643.0	7282.009	0.1198	72.73831	593.0	638.0	638.0
3669.0	7334.009	0.1197	72.6776	597.0	641.0	642.0
3689.0	7374.009	0.1196	72.61688	602.25	645.0	645.0
3718.0	7432.009	0.1196	72.61688	606.5	650.0	650.0
3744.0	7484.009	0.1195	72.55616	610.5	654.0	655.0
3767.0	7530.009	0.1195	72.55616	614.5	658.0	658.0
3792.0	7580.009	0.1194	72.49545	618.5	662.0	663.0
3818.0	7632.009	0.1193	72.43473	622.75	666.0	667.0
3844.0	7684.009	0.1193	72.43473	627.25	671.0	671.0
3869.0	7734.009	0.1192	72.37401	632.25	675.0	675.0
3895.0	7786.009	0.1192	72.37401	636.5	679.0	680.0
3918.0	7832.009	0.1191	72.3133	640.5	683.0	683.0
3945.0	7886.009	0.119	72.25258	645.0	688.0	688.0
3972.0	7940.009	0.119	72.25258	649.0	692.0	692.0
3990.0	7976.009	0.1189	72.19186	653.75	695.0	695.0
4020.0	8036.009	0.1188	72.13115	657.75	700.0	700.0
4046.0	8088.009	0.1188	72.13115	661.75	705.0	705.0
4071.0	8138.009	0.1187	72.07043	665.75	709.0	709.0
4095.0	8186.009	0.1187	72.07043	669.75	712.0	713.0
4120.0	8236.009	0.1186	72.00971	675.0	716.0	717.0
4149.0	8294.009	0.1186	72.00971	679.25	722.0	722.0
4174.0	8344.009	0.1185	71.949	683.5	726.0	726.0
4200.0	8396.009	0.1184	71.88828	688.0	729.0	730.0
4223.0	8442.009	0.1184	71.88828	692.5	734.0	734.0
4251.0	8498.009	0.1183	71.82757	696.5	739.0	739.0
4278.0	8552.009	0.1182	71.76685	700.5	743.0	743.0
4296.0	8588.009	0.1182	71.76685	705.25	746.0	746.0
4325.0	8646.009	0.1181	71.70613	709.5	752.0	751.0
4358.0	8712.009	0.1181	71.70613	713.75	756.0	756.0
4380.0	8756.009	0.118	71.64542	718.75	760.0	760.0
4412.0	8820.009	0.1179	71.5847	723.0	765.0	765.0
4437.0	8870.009	0.1179	71.5847	727.25	769.0	770.0
4463.0	8922.009	0.1179	71.5847	732.25	774.0	774.0
4495.0	8986.009	0.1178	71.52398	737.25	779.0	779.0
4528.0	9052.009	0.1177	71.46327	741.5	784.0	785.0
4554.0	9104.009	0.1177	71.46327	746.75	788.0	789.0
4579.0	9154.009	0.1176	71.40255	751.0	794.0	793.0
4606.0	9208.009	0.1175	71.34183	755.5	797.0	798.0
4634.0	9264.009	0.1175	71.34183	760.0	802.0	802.0
4666.0	9328.009	0.1174	71.28112	764.25	807.0	808.0
4693.0	9382.009	0.1174	71.28112	769.0	812.0	812.0
4722.0	9440.009	0.1173	71.2204	773.25	817.0	817.0
4743.0	9482.009	0.1173	71.2204	778.0	822.0	820.0
4773.0	9542.009	0.1172	71.15968	782.0	825.0	825.0
4801.0	9598.009	0.1171	71.09897	787.5	829.0	830.0
4834.0	9664.009	0.1171	71.09897	791.5	835.0	835.0
4859.0	9714.009	0.117	71.03825	796.25	839.0	840.0
4890.0	9776.009	0.1169	70.97753	800.5	845.0	845.0
4919.0	9834.009	0.1168	70.91682	805.5	849.0	850.0
4952.0	9900.009	0.1168	70.91682	809.75	854.0	855.0
4974.0	9944.009	0.1168	70.91682	814.5	859.0	859.0
5007.0	10010.009	0.1167	70.8561	818.75	863.0	864.0
5032.0	10060.009	0.1166	70.79539	824.0	869.0	868.0
5067.0	10130.009	0.1165	70.73467	828.0	874.0	874.0
5099.0	10194.009	0.1165	70.73467	833.0	878.0	879.0
5131.0	10258.009	0.1164	70.67395	837.25	884.0	885.0
5156.0	10308.009	0.1163	70.61324	842.25	889.0	889.0
5184.0	10364.009	0.1163	70.61324	847.0	893.0	894.0
5217.0	10430.009	0.1163	70.61324	851.5	899.0	899.0
5219.0	10434.009	0.1162	70.55252	852.0	899.0	899.0