Folder: pyOrigin/charts/20230801/TGA/SATURADAS

File: Cs-STD 4A.txt
06/07/2023 14:43:51
User name: Gabs
Comments: Programa 3
Number	time(s)	mass(g)	Relative_mass(%)	Sample_T(C)	PV(C)	SV(C)
1.0	0.0	0.1509	100.0	30.0	65.0	65.0
18.0	32.0	0.1503	99.60239	34.0	78.0	68.0
36.0	68.0	0.1502	99.53612	37.5	84.0	71.0
65.0	126.0	0.1501	99.46985	41.0	85.0	75.0
122.0	240.0	0.1497	99.20477	44.5	86.0	85.0
155.0	306.0	0.1496	99.1385	48.0	91.0	90.0
184.0	364.0	0.1494	99.00596	51.5	98.0	95.0
216.0	428.0	0.1489	98.67462	55.0	103.0	101.0
246.0	488.0	0.1489	98.67462	58.5	106.0	106.0
272.0	540.0	0.1487	98.54208	62.0	111.0	110.0
299.0	594.0	0.1484	98.34327	65.5	115.0	114.0
328.0	652.0	0.1482	98.21074	69.0	119.0	119.0
355.0	706.0	0.1474	97.68058	72.5	124.0	124.0
379.0	754.0	0.1478	97.94566	76.0	128.0	128.0
405.0	806.0	0.1471	97.48178	79.5	132.0	132.0
431.0	858.0	0.1472	97.54805	83.0	137.0	136.0
456.0	908.0	0.147	97.41551	86.5	141.0	140.0
482.0	960.0	0.1468	97.28297	90.0	145.0	145.0
508.0	1012.0	0.1464	97.01789	93.75	150.0	149.0
533.0	1062.0	0.1456	96.48774	97.25	153.0	153.0
559.0	1114.0	0.1459	96.68655	100.75	157.0	157.0
588.0	1172.0	0.1447	95.89132	104.75	162.0	162.0
613.0	1222.0	0.1455	96.42147	108.5	167.0	166.0
637.0	1270.0	0.1453	96.28893	112.0	171.0	170.0
662.0	1320.0	0.1441	95.4937	115.5	175.0	175.0
689.0	1374.0	0.1447	95.89132	119.0	179.0	179.0
712.0	1420.0	0.1442	95.55997	122.5	183.0	183.0
736.0	1468.0	0.143	94.76474	126.0	188.0	187.0
760.0	1516.0	0.1438	95.2949	129.5	191.0	191.0
786.0	1568.0	0.1435	95.09609	133.0	195.0	195.0
807.0	1610.0	0.1433	94.96355	136.75	200.0	199.0
834.0	1664.0	0.1427	94.56594	140.25	203.0	203.0
860.0	1716.0	0.1421	94.16832	143.75	207.0	207.0
881.0	1758.0	0.1422	94.23459	147.25	211.0	211.0
907.0	1810.0	0.1418	93.96952	150.75	215.0	215.0
928.0	1852.0	0.1415	93.77071	154.25	219.0	219.0
955.0	1906.0	0.1409	93.37309	157.75	223.0	223.0
978.0	1952.0	0.1406	93.17429	161.25	227.0	227.0
1005.0	2006.0	0.1402	92.90921	164.75	232.0	232.0
1027.0	2050.0	0.1398	92.64414	168.25	235.0	235.0
1052.0	2100.0	0.1393	92.31279	171.75	239.0	239.0
1074.0	2144.0	0.1388	91.98144	175.25	243.0	243.0
1099.0	2194.0	0.1382	91.58383	178.75	247.0	247.0
1121.0	2238.0	0.1377	91.25249	182.25	251.0	251.0
1145.0	2286.0	0.1374	91.05368	185.75	254.0	255.0
1168.0	2332.0	0.1367	90.58979	189.5	258.0	259.0
1192.0	2380.0	0.1364	90.39099	193.0	263.0	263.0
1213.0	2422.0	0.1355	89.79457	196.5	266.0	266.0
1235.0	2466.0	0.1348	89.33068	200.0	270.0	270.0
1265.0	2526.0	0.1341	88.8668	204.0	274.0	275.0
1284.0	2564.0	0.1335	88.46918	207.75	278.0	278.0
1306.0	2608.0	0.1328	88.0053	211.5	283.0	281.0
1329.0	2654.0	0.1322	87.60769	215.0	286.0	285.0
1351.0	2698.0	0.1319	87.40888	219.0	289.0	289.0
1368.0	2732.0	0.131	86.81246	222.5	291.0	292.0
1393.0	2782.0	0.1303	86.34858	226.0	296.0	296.0
1415.0	2826.0	0.1296	85.88469	229.5	300.0	300.0
1435.0	2866.0	0.1291	85.55335	233.0	304.0	303.0
1460.0	2916.0	0.1284	85.08946	236.75	307.0	307.0
1481.0	2958.0	0.128	84.82439	240.25	310.0	311.0
1502.0	3000.0	0.1275	84.49304	244.0	314.0	314.0
1527.0	3050.0	0.1272	84.29423	248.0	318.0	318.0
1546.0	3088.0	0.127	84.1617	251.5	321.0	321.0
1565.0	3126.0	0.1268	84.02916	255.25	324.0	324.0
1588.0	3172.0	0.1263	83.69781	259.0	329.0	328.0
1611.0	3218.0	0.1259	83.43274	262.5	332.0	332.0
1631.0	3258.0	0.1257	83.3002	266.0	336.0	335.0
1650.0	3296.0	0.1254	83.10139	269.5	339.0	339.0
1669.0	3334.0	0.1252	82.96885	273.0	343.0	342.0
1694.0	3384.0	0.1251	82.90258	276.5	346.0	346.0
1714.0	3424.0	0.1249	82.77005	280.0	349.0	349.0
1733.0	3462.0	0.1248	82.70378	283.5	352.0	352.0
1753.0	3502.0	0.1246	82.57124	287.0	356.0	356.0
1779.0	3554.0	0.1245	82.50497	290.5	359.0	360.0
1800.0	3596.0	0.1243	82.37243	294.5	363.0	363.0
1819.0	3634.0	0.1243	82.37243	298.0	366.0	367.0
1836.0	3668.0	0.1243	82.37243	301.75	370.0	369.0
1855.0	3706.0	0.124	82.17362	305.25	373.0	373.0
1875.0	3746.0	0.124	82.17362	308.75	377.0	376.0
1900.0	3796.0	0.1237	81.97482	312.25	380.0	380.0
1922.0	3840.0	0.1237	81.97482	316.0	384.0	384.0
1941.0	3878.0	0.1237	81.97482	319.75	387.0	387.0
1962.0	3920.0	0.1235	81.84228	323.75	390.0	390.0
1983.0	3962.0	0.1234	81.77601	327.5	394.0	394.0
2003.0	4002.0	0.1234	81.77601	331.25	398.0	397.0
2025.0	4046.0	0.1232	81.64347	334.75	401.0	401.0
2048.0	4092.0	0.1231	81.5772	338.25	404.0	405.0
2068.0	4132.0	0.1231	81.5772	342.0	407.0	408.0
2090.0	4176.0	0.123	81.51093	345.5	411.0	412.0
2108.0	4212.0	0.123	81.51093	349.0	414.0	415.0
2127.0	4250.0	0.1228	81.3784	352.5	418.0	418.0
2146.0	4288.0	0.1229	81.44467	356.0	421.0	421.0
2170.0	4336.0	0.1228	81.3784	359.5	425.0	425.0
2189.0	4374.0	0.1225	81.17959	363.25	428.0	428.0
2210.0	4416.0	0.1227	81.31213	367.0	432.0	432.0
2231.0	4458.0	0.1226	81.24586	370.75	435.0	435.0
2250.0	4496.0	0.1226	81.24586	374.5	438.0	438.0
2269.0	4534.0	0.1225	81.17959	378.0	441.0	441.0
2288.0	4572.0	0.1224	81.11332	381.5	444.0	444.0
2308.0	4612.0	0.1225	81.17959	385.25	448.0	448.0
2329.0	4654.0	0.1224	81.11332	389.25	451.0	451.0
2348.0	4692.0	0.1222	80.98078	392.75	454.0	454.0
2367.0	4730.0	0.1222	80.98078	396.25	457.0	458.0
2387.0	4770.0	0.1222	80.98078	399.75	461.0	461.0
2411.0	4818.0	0.122	80.84824	403.75	465.0	465.0
2430.0	4856.0	0.1221	80.91451	407.25	468.0	468.0
2450.0	4896.0	0.1221	80.91451	411.0	471.0	471.0
2469.0	4934.0	0.1221	80.91451	414.5	475.0	475.0
2489.0	4974.0	0.1219	80.78197	418.0	478.0	478.0
2511.0	5018.0	0.1219	80.78197	422.0	481.0	482.0
2530.0	5056.0	0.1218	80.71571	425.5	485.0	485.0
2551.0	5098.0	0.1219	80.78197	429.25	488.0	488.0
2572.0	5140.0	0.1218	80.71571	432.75	491.0	492.0
2592.0	5180.0	0.1219	80.78197	436.5	494.0	495.0
2613.0	5222.0	0.1217	80.64944	440.5	498.0	498.0
2630.0	5256.0	0.1218	80.71571	444.0	501.0	501.0
2651.0	5298.0	0.1217	80.64944	447.75	505.0	505.0
2671.0	5338.0	0.1216	80.58317	451.25	508.0	508.0
2691.0	5378.0	0.1216	80.58317	455.0	511.0	511.0
2711.0	5418.0	0.1214	80.45063	458.5	514.0	515.0
2732.0	5460.0	0.1213	80.38436	462.0	518.0	518.0
2751.0	5498.0	0.1214	80.45063	465.75	521.0	521.0
2771.0	5538.0	0.1215	80.5169	469.5	524.0	525.0
2788.0	5572.0	0.1214	80.45063	473.0	528.0	528.0
2809.0	5614.0	0.1213	80.38436	476.5	531.0	531.0
2828.0	5652.0	0.1214	80.45063	480.0	534.0	534.0
2849.0	5694.0	0.1211	80.25182	483.75	537.0	538.0
2868.0	5732.0	0.1213	80.38436	487.25	541.0	541.0
2889.0	5774.0	0.1212	80.31809	491.0	544.0	544.0
2910.0	5816.0	0.1212	80.31809	494.75	548.0	548.0
2928.0	5852.0	0.1213	80.38436	498.25	551.0	551.0
2950.0	5896.0	0.1212	80.31809	502.25	554.0	554.0
2971.0	5938.0	0.121	80.18555	506.0	558.0	558.0
2993.0	5982.0	0.1212	80.31809	509.5	561.0	562.0
3011.0	6018.0	0.121	80.18555	513.0	564.0	565.0
3030.0	6056.0	0.1209	80.11928	516.5	568.0	568.0
3052.0	6100.0	0.1209	80.11928	520.25	571.0	571.0
3072.0	6140.0	0.121	80.18555	523.75	574.0	575.0
3092.0	6180.0	0.1209	80.11928	527.25	577.0	578.0
3113.0	6222.0	0.1208	80.05302	531.25	582.0	581.0
3135.0	6266.0	0.1209	80.11928	535.0	585.0	585.0
3156.0	6308.0	0.1209	80.11928	538.5	588.0	589.0
3174.0	6344.0	0.121	80.18555	542.0	591.0	592.0
3194.0	6384.0	0.1207	79.98675	545.5	595.0	595.0
3214.0	6424.0	0.1208	80.05302	549.0	598.0	598.0
3230.0	6456.0	0.1207	79.98675	553.0	601.0	601.0
3249.0	6494.0	0.1207	79.98675	556.5	604.0	604.0
3274.0	6544.0	0.1207	79.98675	560.0	608.0	608.0
3294.0	6584.0	0.1206	79.92048	564.0	611.0	612.0
3315.0	6626.0	0.1205	79.85421	567.75	615.0	615.0
3335.0	6666.0	0.1206	79.92048	571.25	618.0	618.0
3355.0	6706.0	0.1205	79.85421	574.75	621.0	622.0
3375.0	6746.0	0.1205	79.85421	578.25	625.0	625.0
3396.0	6788.0	0.1204	79.78794	582.0	628.0	628.0
3418.0	6832.0	0.1205	79.85421	585.5	632.0	632.0
3442.0	6880.0	0.1204	79.78794	589.25	636.0	636.0
3462.0	6920.0	0.1204	79.78794	592.75	639.0	639.0
3481.0	6958.0	0.1203	79.72167	596.25	642.0	643.0
3498.0	6992.0	0.1203	79.72167	600.25	645.0	645.0
3520.0	7036.0	0.1203	79.72167	603.75	649.0	649.0
3540.0	7076.0	0.1203	79.72167	607.25	652.0	652.0
3561.0	7118.0	0.1203	79.72167	610.75	656.0	656.0
3582.0	7160.0	0.1202	79.6554	614.25	659.0	659.0
3605.0	7206.0	0.1201	79.58913	618.0	663.0	663.0
3627.0	7250.0	0.1201	79.58913	621.5	666.0	667.0
3646.0	7288.0	0.1201	79.58913	625.0	670.0	670.0
3665.0	7326.0	0.12	79.52286	628.75	673.0	673.0
3684.0	7364.0	0.12	79.52286	632.25	676.0	676.0
3705.0	7406.0	0.12	79.52286	635.75	679.0	680.0
3727.0	7450.0	0.12	79.52286	639.25	683.0	683.0
3747.0	7490.0	0.1199	79.45659	642.75	687.0	687.0
3771.0	7538.0	0.1199	79.45659	646.5	690.0	691.0
3792.0	7580.0	0.1199	79.45659	650.25	693.0	694.0
3808.0	7612.0	0.1199	79.45659	654.25	696.0	697.0
3834.0	7664.0	0.1199	79.45659	658.0	700.0	701.0
3862.0	7720.0	0.1199	79.45659	662.0	705.0	706.0
3883.0	7762.0	0.1198	79.39032	665.5	709.0	709.0
3902.0	7800.0	0.1198	79.39032	669.0	712.0	712.0
3921.0	7838.0	0.1198	79.39032	673.0	715.0	716.0
3943.0	7882.0	0.1197	79.32406	676.5	719.0	719.0
3968.0	7932.0	0.1196	79.25779	680.5	723.0	723.0
3990.0	7976.0	0.1197	79.32406	684.0	727.0	727.0
4011.0	8018.0	0.1197	79.32406	687.75	729.0	731.0
4028.0	8052.0	0.1196	79.25779	691.5	733.0	733.0
4054.0	8104.0	0.1195	79.19152	695.0	737.0	738.0
4077.0	8150.0	0.1194	79.12525	699.0	741.0	741.0
4101.0	8198.0	0.1194	79.12525	702.5	743.0	745.0
4118.0	8232.0	0.1193	79.05898	706.0	747.0	748.0
4138.0	8272.0	0.1193	79.05898	709.5	751.0	752.0
4161.0	8318.0	0.1193	79.05898	713.0	754.0	755.0
4186.0	8368.0	0.1192	78.99271	716.5	758.0	760.0
4207.0	8410.0	0.1192	78.99271	720.0	761.0	763.0
4228.0	8452.0	0.1192	78.99271	723.75	765.0	767.0
4251.0	8498.0	0.1192	78.99271	727.25	769.0	770.0
4276.0	8548.0	0.1191	78.92644	730.75	772.0	775.0
4301.0	8598.0	0.1191	78.92644	734.25	775.0	779.0
4332.0	8660.0	0.119	78.86017	737.75	779.0	784.0
4362.0	8720.0	0.119	78.86017	741.25	783.0	789.0
4395.0	8786.0	0.1189	78.7939	744.75	787.0	794.0
4425.0	8846.0	0.1189	78.7939	748.25	790.0	799.0
4459.0	8914.0	0.1189	78.7939	751.75	794.0	805.0
4506.0	9008.0	0.1188	78.72763	755.25	796.0	813.0
4560.0	9116.0	0.1188	78.72763	758.75	802.0	822.0
4623.0	9242.0	0.1187	78.66137	762.25	805.0	832.0
4704.0	9404.0	0.1186	78.5951	765.75	810.0	846.0
4818.0	9632.0	0.1186	78.5951	769.25	813.0	865.0
5132.0	10260.0	0.1185	78.52883	772.75	817.0	879.0
6034.0	12064.0	0.1185	78.52883	776.25	820.0	882.0
7706.0	15408.013	0.1188	78.72763	778.0	824.0	885.0

File: Cs-STD 5A.txt
05/07/2023 14:07:08
User name: Gabs
Comments: programa 3
Number	time(s)	mass(g)	Relative_mass(%)	Sample_T(C)	PV(C)	SV(C)
1.0	0.0	0.1574	99.93651	22.0	59.0	57.0
17.0	30.001	0.1566	99.42857	28.0	79.0	60.0
32.0	60.001	0.1566	99.42857	33.25	88.0	62.0
48.0	92.001	0.1566	99.42857	37.0	91.0	65.0
73.0	142.001	0.1565	99.36508	40.75	89.0	69.0
171.0	338.001	0.1559	98.98413	44.5	86.0	86.0
218.0	432.001	0.1555	98.73016	48.25	93.0	93.0
258.0	512.001	0.1553	98.60317	52.0	99.0	100.0
286.0	568.001	0.155	98.4127	56.0	106.0	105.0
318.0	632.001	0.1549	98.34921	60.0	111.0	110.0
350.0	696.001	0.1549	98.34921	63.75	115.0	116.0
376.0	748.001	0.1542	97.90476	67.5	119.0	120.0
404.0	804.001	0.1539	97.71429	71.25	124.0	125.0
431.0	858.001	0.1538	97.65079	75.0	129.0	129.0
460.0	916.001	0.1535	97.46032	78.75	133.0	134.0
487.0	970.001	0.1531	97.20635	82.5	138.0	138.0
514.0	1024.001	0.1529	97.07937	86.25	142.0	143.0
544.0	1084.001	0.1527	96.95238	90.25	147.0	148.0
570.0	1136.001	0.1523	96.69841	94.0	152.0	152.0
597.0	1190.001	0.1521	96.57143	98.0	157.0	157.0
622.0	1240.001	0.1518	96.38095	101.75	162.0	161.0
649.0	1294.001	0.1515	96.19048	105.5	167.0	166.0
676.0	1348.001	0.1513	96.06349	109.25	171.0	170.0
704.0	1404.001	0.1511	95.93651	113.25	174.0	175.0
732.0	1460.001	0.1507	95.68254	117.25	179.0	179.0
762.0	1520.001	0.1504	95.49206	121.25	184.0	185.0
788.0	1572.001	0.1502	95.36508	125.0	189.0	189.0
811.0	1618.001	0.1498	95.11111	129.0	194.0	193.0
840.0	1676.001	0.1496	94.98413	133.0	199.0	198.0
868.0	1732.001	0.1492	94.73016	136.75	202.0	202.0
895.0	1786.001	0.1489	94.53968	140.5	206.0	207.0
917.0	1830.001	0.1486	94.34921	144.25	211.0	210.0
943.0	1885.981	0.1481	94.03175	148.0	215.0	215.0
967.0	1933.981	0.1479	93.90476	151.75	219.0	219.0
994.0	1987.981	0.1475	93.65079	155.75	224.0	224.0
1017.0	2033.981	0.1471	93.39683	159.5	229.0	228.0
1045.0	2089.981	0.1465	93.01587	163.25	232.0	232.0
1069.0	2137.981	0.1461	92.7619	167.0	237.0	236.0
1096.0	2191.981	0.1456	92.44444	170.75	241.0	241.0
1118.0	2235.981	0.1452	92.19048	174.5	245.0	244.0
1144.0	2287.981	0.1444	91.68254	178.25	249.0	249.0
1167.0	2333.981	0.1438	91.30159	182.25	254.0	253.0
1193.0	2385.981	0.1433	90.98413	186.0	257.0	257.0
1216.0	2431.981	0.1428	90.66667	189.75	261.0	261.0
1242.0	2483.981	0.142	90.15873	193.5	265.0	265.0
1263.0	2525.981	0.1414	89.77778	197.25	268.0	269.0
1289.0	2577.981	0.1407	89.33333	201.0	273.0	273.0
1314.0	2627.981	0.1399	88.8254	204.75	278.0	277.0
1339.0	2677.981	0.1391	88.31746	208.5	281.0	281.0
1366.0	2731.981	0.1383	87.80952	212.5	286.0	286.0
1389.0	2777.981	0.1375	87.30159	216.25	290.0	290.0
1413.0	2825.981	0.1369	86.92063	220.0	294.0	294.0
1439.0	2877.981	0.136	86.34921	224.25	298.0	298.0
1462.0	2923.981	0.1354	85.96825	228.25	302.0	302.0
1487.0	2973.981	0.1347	85.52381	232.0	306.0	306.0
1509.0	3017.981	0.1341	85.14286	236.0	310.0	310.0
1531.0	3061.981	0.1335	84.7619	239.75	314.0	314.0
1555.0	3109.981	0.133	84.44444	243.5	317.0	318.0
1577.0	3153.981	0.1325	84.12698	247.5	321.0	321.0
1598.0	3195.981	0.1322	83.93651	251.5	325.0	325.0
1619.0	3237.981	0.1318	83.68254	255.25	329.0	328.0
1643.0	3285.981	0.1315	83.49206	259.0	333.0	332.0
1665.0	3329.982	0.1313	83.36508	262.75	336.0	336.0
1686.0	3371.982	0.1311	83.2381	266.5	339.0	340.0
1712.0	3423.982	0.1308	83.04762	270.25	343.0	344.0
1735.0	3469.982	0.1306	82.92063	274.75	348.0	348.0
1757.0	3513.982	0.1304	82.79365	278.5	351.0	351.0
1778.0	3555.982	0.1302	82.66667	282.25	354.0	355.0
1796.0	3591.982	0.1301	82.60317	286.0	359.0	358.0
1826.0	3651.982	0.13	82.53968	289.75	362.0	363.0
1847.0	3693.983	0.1298	82.4127	294.25	366.0	366.0
1867.0	3733.983	0.1297	82.34921	298.0	370.0	370.0
1887.0	3773.983	0.1296	82.28571	301.75	373.0	373.0
1913.0	3825.983	0.1294	82.15873	305.5	377.0	378.0
1936.0	3871.983	0.1294	82.15873	309.5	381.0	381.0
1955.0	3909.983	0.1293	82.09524	313.5	385.0	385.0
1974.0	3947.984	0.1292	82.03175	317.25	388.0	388.0
1995.0	3989.984	0.1292	82.03175	321.25	391.0	391.0
2016.0	4031.984	0.1287	81.71429	325.0	394.0	395.0
2041.0	4081.984	0.129	81.90476	328.75	399.0	399.0
2062.0	4123.984	0.1288	81.77778	332.75	402.0	402.0
2083.0	4165.984	0.129	81.90476	336.75	406.0	406.0
2103.0	4205.984	0.1288	81.77778	340.5	409.0	409.0
2123.0	4245.985	0.1287	81.71429	344.25	413.0	413.0
2144.0	4287.985	0.1288	81.77778	348.25	416.0	416.0
2164.0	4327.985	0.1286	81.65079	352.0	419.0	420.0
2183.0	4365.985	0.1286	81.65079	355.75	424.0	423.0
2212.0	4423.985	0.1285	81.5873	360.0	427.0	428.0
2231.0	4461.985	0.1285	81.5873	363.75	430.0	431.0
2251.0	4501.987	0.1284	81.52381	367.5	434.0	434.0
2272.0	4543.989	0.1284	81.52381	371.5	437.0	438.0
2293.0	4585.989	0.1283	81.46032	375.5	441.0	441.0
2314.0	4627.989	0.1283	81.46032	379.25	444.0	445.0
2333.0	4665.989	0.1284	81.52381	383.0	448.0	448.0
2355.0	4709.989	0.1283	81.46032	387.0	452.0	452.0
2376.0	4751.99	0.1282	81.39683	391.25	455.0	455.0
2401.0	4801.992	0.1282	81.39683	395.75	459.0	459.0
2427.0	4853.997	0.1281	81.33333	399.5	464.0	464.0
2446.0	4891.997	0.1281	81.33333	403.25	467.0	467.0
2468.0	4936.0	0.128	81.26984	407.25	470.0	470.0
2488.0	4976.001	0.1281	81.33333	411.25	474.0	474.0
2509.0	5018.002	0.128	81.26984	415.0	477.0	477.0
2529.0	5058.006	0.1279	81.20635	418.75	480.0	481.0
2553.0	5106.006	0.1279	81.20635	423.25	484.0	485.0
2573.0	5146.007	0.1279	81.20635	427.25	488.0	488.0
2596.0	5192.008	0.1278	81.14286	431.25	492.0	492.0
2618.0	5236.012	0.1279	81.20635	435.5	496.0	496.0
2641.0	5282.012	0.1278	81.14286	439.75	499.0	499.0
2661.0	5322.012	0.1278	81.14286	443.5	503.0	503.0
2681.0	5362.013	0.1276	81.01587	447.25	506.0	506.0
2705.0	5410.015	0.1277	81.07937	451.5	510.0	510.0
2725.0	5450.02	0.1275	80.95238	455.5	514.0	513.0
2748.0	5496.02	0.1274	80.88889	459.5	517.0	517.0
2769.0	5538.02	0.1276	81.01587	463.5	521.0	521.0
2790.0	5580.02	0.1275	80.95238	467.25	524.0	524.0
2810.0	5620.025	0.1276	81.01587	471.0	528.0	528.0
2832.0	5664.025	0.1274	80.88889	475.0	531.0	531.0
2855.0	5710.025	0.1274	80.88889	478.75	535.0	535.0
2875.0	5750.027	0.1274	80.88889	482.75	538.0	539.0
2897.0	5794.029	0.1274	80.88889	486.75	542.0	542.0
2916.0	5832.029	0.1275	80.95238	490.5	545.0	545.0
2942.0	5884.031	0.1275	80.95238	494.75	549.0	550.0
2963.0	5926.034	0.1274	80.88889	498.5	552.0	553.0
2984.0	5968.034	0.1273	80.8254	502.5	556.0	557.0
3003.0	6006.036	0.1274	80.88889	506.25	560.0	560.0
3027.0	6054.039	0.1272	80.7619	510.25	564.0	564.0
3047.0	6094.039	0.1273	80.8254	514.25	567.0	567.0
3071.0	6142.039	0.1272	80.7619	518.0	571.0	571.0
3095.0	6190.042	0.1271	80.69841	522.75	575.0	575.0
3118.0	6236.042	0.127	80.63492	526.5	579.0	579.0
3139.0	6278.044	0.127	80.63492	530.5	583.0	583.0
3159.0	6318.044	0.127	80.63492	534.25	586.0	586.0
3182.0	6364.05	0.1271	80.69841	538.25	590.0	590.0
3203.0	6406.053	0.127	80.63492	542.25	592.0	593.0
3226.0	6452.053	0.1269	80.57143	546.0	597.0	597.0
3247.0	6494.056	0.1268	80.50794	550.5	600.0	601.0
3270.0	6540.057	0.1269	80.57143	554.75	604.0	605.0
3291.0	6582.057	0.1268	80.50794	558.5	608.0	608.0
3314.0	6628.059	0.1268	80.50794	562.5	611.0	612.0
3338.0	6676.06	0.1267	80.44444	567.0	616.0	616.0
3363.0	6726.06	0.1266	80.38095	571.25	620.0	620.0
3387.0	6774.06	0.1268	80.50794	575.0	624.0	624.0
3407.0	6814.06	0.1266	80.38095	578.75	627.0	628.0
3430.0	6860.06	0.1265	80.31746	583.25	631.0	631.0
3454.0	6908.06	0.1265	80.31746	587.0	636.0	636.0
3475.0	6950.06	0.1265	80.31746	591.0	639.0	639.0
3496.0	6992.06	0.1264	80.25397	594.75	643.0	643.0
3518.0	7036.06	0.1264	80.25397	599.75	647.0	646.0
3541.0	7082.06	0.1263	80.19048	603.75	650.0	650.0
3566.0	7132.06	0.1264	80.25397	607.5	654.0	654.0
3588.0	7176.06	0.1263	80.19048	611.25	657.0	658.0
3611.0	7222.06	0.1261	80.06349	615.0	661.0	662.0
3634.0	7268.06	0.1261	80.06349	618.75	665.0	666.0
3655.0	7310.06	0.1261	80.06349	622.5	668.0	669.0
3676.0	7352.06	0.1262	80.12698	626.5	671.0	673.0
3692.0	7384.06	0.1261	80.06349	630.5	675.0	675.0
3720.0	7440.06	0.1261	80.06349	634.5	679.0	680.0
3742.0	7484.06	0.1261	80.06349	638.25	683.0	684.0
3766.0	7532.06	0.126	80.0	642.0	687.0	688.0
3789.0	7578.06	0.1259	79.93651	646.0	691.0	692.0
3807.0	7614.06	0.1259	79.93651	650.0	694.0	695.0
3827.0	7654.06	0.1259	79.93651	654.0	697.0	698.0
3853.0	7706.06	0.1258	79.87302	658.0	702.0	702.0
3876.0	7752.06	0.1257	79.80952	661.75	705.0	706.0
3901.0	7802.06	0.1258	79.87302	665.75	710.0	710.0
3922.0	7844.06	0.1257	79.80952	670.0	713.0	714.0
3946.0	7892.06	0.1258	79.87302	674.0	717.0	718.0
3967.0	7934.06	0.1257	79.80952	677.75	721.0	721.0
3992.0	7984.06	0.1255	79.68254	681.5	725.0	726.0
4015.0	8030.06	0.1256	79.74603	685.25	728.0	729.0
4032.0	8064.06	0.1255	79.68254	689.0	731.0	732.0
4052.0	8104.06	0.1255	79.68254	692.75	734.0	736.0
4080.0	8160.06	0.1255	79.68254	696.5	739.0	740.0
4105.0	8210.06	0.1255	79.68254	700.5	743.0	744.0
4125.0	8250.06	0.1255	79.68254	704.5	746.0	748.0
4147.0	8294.06	0.1255	79.68254	708.5	750.0	752.0
4171.0	8342.06	0.1253	79.55556	712.25	754.0	756.0
4196.0	8392.06	0.1253	79.55556	716.0	758.0	760.0
4219.0	8438.06	0.1253	79.55556	719.75	762.0	764.0
4245.0	8490.06	0.1253	79.55556	723.5	766.0	768.0
4272.0	8544.06	0.1252	79.49206	727.25	769.0	772.0
4300.0	8600.06	0.1253	79.55556	731.0	773.0	777.0
4332.0	8664.06	0.1251	79.42857	734.75	777.0	782.0
4371.0	8742.06	0.1251	79.42857	738.5	782.0	789.0
4420.0	8840.06	0.125	79.36508	742.25	784.0	797.0
4472.0	8944.06	0.1252	79.49206	746.0	789.0	806.0
4541.0	9082.06	0.1252	79.49206	749.75	793.0	817.0
4630.0	9260.06	0.125	79.36508	753.5	797.0	832.0
4748.0	9496.06	0.1252	79.49206	757.25	800.0	852.0
4902.0	9804.06	0.125	79.36508	761.0	806.0	867.0
5102.0	10204.06	0.1251	79.42857	764.75	808.0	870.0
5436.0	10872.072	0.1252	79.49206	768.5	812.0	874.0
6253.0	12506.072	0.1258	79.87302	771.25	815.0	878.0