Folder: pyOrigin/charts/20230801/DTA/INSATURADAS (part 2)

File: ZCFA.txt
#FILE:                       ;DTA Danilo Zeolita.ngb-dd9
#FORMAT:                     ;NETZSCH5
#IDENTITY:                   ;Danilo
#DECIMAL:                    ;POINT
#SEPARATOR:                  ;SEMICOLON
#MTYPE:                      ;DTA
#INSTRUMENT:                 ;NETZSCH DSC 404F3
#PROJECT:                    ;Danilo
#DATE/TIME:                  ;10/05/2022 09:40:23
#CORR. FILE:                 ;DTA_Branco_VidroZeolita.ngb-bd9
#LABORATORY:                 ;DSC/DTA
#OPERATOR:                   ;Eguiberto
#REMARK:                     ;Danilo
#SAMPLE:                     ;Zeolita
#SAMPLE MASS /mg:            ;110.10
#MATERIAL:                   ;Vidro + Zeolita
#REFERENCE:                  ;Empty
#REFERENCE MASS /mg:         ;0
#TYPE OF CRUCIBLE:           ;DTA/TG crucible Al2O3
#SAMPLE CRUCIBLE MASS /mg:   ;1343.6
#REFERENCE CRUCIBLE MASS /mg:;1342.95
#CORR. CODE:                 ;020
#EXO:                        ;-1
#RANGE:                      ;20/10.0(K/min)/1300
#SEGMENT:                    ;S1/1

##Temp./øC;Time/min;DTA/(uV/mg);Sensit./(uV/mW)
  18.46800;0.0000e+000; 3.3955e-004;1.00000
  18.53600;    0.53000; 3.8112e-004;1.00000
  18.93400;    1.06000; 5.6129e-004;1.00000
  19.89100;    1.59000; 1.3720e-003;1.00000
  21.36500;    2.12000; 3.3262e-003;1.00000
  23.30500;    2.65000; 5.9871e-003;1.00000
  25.77200;    3.18000; 8.5233e-003;1.00000
  28.78600;    3.71000; 1.0561e-002;1.00000
  32.43700;    4.24000; 1.2141e-002;1.00000
  36.71600;    4.77000; 1.3215e-002;1.00000
  41.61400;    5.30000; 1.4358e-002;1.00000
  47.06900;    5.83000; 1.5418e-002;1.00000
  53.03500;    6.36000; 1.6645e-002;1.00000
  59.51800;    6.89000; 1.8564e-002;1.00000
  66.39100;    7.42000; 2.1752e-002;1.00000
  73.57000;    7.95000; 2.6284e-002;1.00000
  81.00200;    8.48000; 3.1897e-002;1.00000
  88.65400;    9.01000; 3.7724e-002;1.00000
  96.44800;    9.54000; 4.4571e-002;1.00000
 104.295;   10.07000; 5.5415e-002;1.00000
 112.103;   10.60000; 6.2913e-002;1.00000
 119.831;   11.13000; 6.8505e-002;1.00000
 127.476;   11.66000; 6.8831e-002;1.00000
 134.998;   12.19000; 6.5394e-002;1.00000
 142.397;   12.72000; 5.9809e-002;1.00000
 149.615;   13.25000; 5.3198e-002;1.00000
 156.6;   13.78000; 4.6199e-002;1.00000
 163.384;   14.31000; 3.8958e-002;1.00000
 169.936;   14.84000; 3.1862e-002;1.00000
 176.297;   15.37000; 2.4856e-002;1.00000
 182.443;   15.90000; 1.7608e-002;1.00000
 188.389;   16.43000; 9.9854e-003;1.00000
 194.201;   16.96000; 1.3305e-003;1.00000
 199.834;   17.49000;-8.5233e-003;1.00000
 205.313;   18.02000;-2.0137e-002;1.00000
 210.658;   18.55000;-3.3601e-002;1.00000
 215.901;   19.08000;-4.9047e-002;1.00000
 221.066;   19.61000;-6.6447e-002;1.00000
 226.143;   20.14000;-8.5420e-002;1.00000
 231.182;   20.67000;    -0.10573;1.00000
 236.193;   21.20000;    -0.12679;1.00000
 241.17;   21.73000;    -0.14807;1.00000
 246.129;   22.26000;    -0.16919;1.00000
 251.11;   22.79000;    -0.18970;1.00000
 256.057;   23.32000;    -0.20885;1.00000
 261.031;   23.85000;    -0.22707;1.00000
 266.029;   24.38000;    -0.24382;1.00000
 271.046;   24.91000;    -0.25963;1.00000
 276.045;   25.44000;    -0.27435;1.00000
 281.093;   25.97000;    -0.28796;1.00000
 286.137;   26.50000;    -0.30059;1.00000
 291.219;   27.03000;    -0.31198;1.00000
 296.322;   27.56000;    -0.32247;1.00000
 301.441;   28.09000;    -0.33219;1.00000
 306.571;   28.62000;    -0.34084;1.00000
 311.709;   29.15000;    -0.34901;1.00000
 316.897;   29.68000;    -0.35647;1.00000
 322.06;   30.21000;    -0.36342;1.00000
 327.278;   30.74000;    -0.36986;1.00000
 332.478;   31.27000;    -0.37604;1.00000
 337.703;   31.80000;    -0.38161;1.00000
 342.917;   32.33000;    -0.38696;1.00000
 348.136;   32.86000;    -0.39201;1.00000
 353.394;   33.39000;    -0.39673;1.00000
 358.625;   33.92000;    -0.40136;1.00000
 363.879;   34.45000;    -0.40558;1.00000
 369.113;   34.98000;    -0.40947;1.00000
 374.367;   35.51000;    -0.41339;1.00000
 379.616;   36.04000;    -0.41701;1.00000
 384.867;   36.57000;    -0.42062;1.00000
 390.111;   37.10000;    -0.42409;1.00000
 395.367;   37.63000;    -0.42779;1.00000
 400.625;   38.16000;    -0.43116;1.00000
 405.87;   38.69000;    -0.43445;1.00000
 411.134;   39.22000;    -0.43770;1.00000
 416.387;   39.75000;    -0.44077;1.00000
 421.65;   40.28000;    -0.44342;1.00000
 426.906;   40.81000;    -0.44607;1.00000
 432.181;   41.34000;    -0.44864;1.00000
 437.449;   41.87000;    -0.45094;1.00000
 442.709;   42.40000;    -0.45331;1.00000
 447.97;   42.93000;    -0.45546;1.00000
 453.241;   43.46000;    -0.45774;1.00000
 458.497;   43.99000;    -0.45991;1.00000
 463.777;   44.52000;    -0.46207;1.00000
 469.034;   45.05000;    -0.46421;1.00000
 474.309;   45.58000;    -0.46634;1.00000
 479.583;   46.11000;    -0.46844;1.00000
 484.844;   46.64000;    -0.47041;1.00000
 490.133;   47.17000;    -0.47240;1.00000
 495.408;   47.70000;    -0.47404;1.00000
 500.679;   48.23000;    -0.47570;1.00000
 505.978;   48.76000;    -0.47735;1.00000
 511.247;   49.29000;    -0.47887;1.00000
 516.519;   49.82000;    -0.48010;1.00000
 521.796;   50.35000;    -0.48158;1.00000
 527.079;   50.88000;    -0.48289;1.00000
 532.352;   51.41000;    -0.48427;1.00000
 537.644;   51.94000;    -0.48557;1.00000
 542.929;   52.47000;    -0.48665;1.00000
 548.199;   53.00000;    -0.48782;1.00000
 553.491;   53.53000;    -0.48912;1.00000
 558.773;   54.06000;    -0.49051;1.00000
 564.074;   54.59000;    -0.49163;1.00000
 569.364;   55.12000;    -0.49267;1.00000
 574.655;   55.65000;    -0.49373;1.00000
 579.945;   56.18000;    -0.49480;1.00000
 585.242;   56.71000;    -0.49578;1.00000
 590.529;   57.24000;    -0.49670;1.00000
 595.816;   57.77000;    -0.49759;1.00000
 601.116;   58.30000;    -0.49825;1.00000
 606.412;   58.83000;    -0.49899;1.00000
 611.713;   59.36000;    -0.49974;1.00000
 617.003;   59.89000;    -0.50041;1.00000
 622.288;   60.42000;    -0.50111;1.00000
 627.57;   60.95000;    -0.50173;1.00000
 632.872;   61.48000;    -0.50258;1.00000
 638.167;   62.01000;    -0.50341;1.00000
 643.479;   62.54000;    -0.50427;1.00000
 648.772;   63.07000;    -0.50524;1.00000
 654.08;   63.60000;    -0.50635;1.00000
 659.369;   64.13000;    -0.50770;1.00000
 664.673;   64.66000;    -0.50935;1.00000
 669.969;   65.19000;    -0.51138;1.00000
 675.278;   65.72000;    -0.51427;1.00000
 680.584;   66.25000;    -0.51789;1.00000
 685.889;   66.78000;    -0.52287;1.00000
 691.186;   67.31000;    -0.52864;1.00000
 696.483;   67.84000;    -0.53423;1.00000
 701.791;   68.37000;    -0.53866;1.00000
 707.105;   68.90000;    -0.54085;1.00000
 712.403;   69.43000;    -0.54050;1.00000
 717.699;   69.96000;    -0.53819;1.00000
 722.997;   70.49000;    -0.53393;1.00000
 728.286;   71.02000;    -0.52830;1.00000
 733.586;   71.55000;    -0.52210;1.00000
 738.867;   72.08000;    -0.51587;1.00000
 744.17;   72.61000;    -0.51081;1.00000
 749.465;   73.14000;    -0.50743;1.00000
 754.775;   73.67000;    -0.50592;1.00000
 760.082;   74.20000;    -0.50607;1.00000
 765.382;   74.73000;    -0.50710;1.00000
 770.692;   75.26000;    -0.50893;1.00000
 776.007;   75.79000;    -0.51119;1.00000
 781.311;   76.32000;    -0.51402;1.00000
 786.625;   76.85000;    -0.51710;1.00000
 791.928;   77.38000;    -0.52037;1.00000
 797.246;   77.91000;    -0.52387;1.00000
[...]
 818.489;   80.03000;    -0.53494;1.00000
 823.793;   80.56000;    -0.53692;1.00000
 829.104;   81.09000;    -0.53851;1.00000
 834.409;   81.62000;    -0.53966;1.00000
 839.719;   82.15000;    -0.54081;1.00000
 845.029;   82.68000;    -0.54155;1.00000
 850.346;   83.21000;    -0.54241;1.00000
 855.653;   83.74000;    -0.54345;1.00000
 860.974;   84.27000;    -0.54466;1.00000
 866.279;   84.80000;    -0.54608;1.00000
 871.588;   85.33000;    -0.54780;1.00000
 876.894;   85.86000;    -0.54939;1.00000
 882.209;   86.39000;    -0.55115;1.00000
 887.511;   86.92000;    -0.55266;1.00000
 892.825;   87.45000;    -0.55431;1.00000
 898.14;   87.98000;    -0.55570;1.00000
 903.456;   88.51000;    -0.55690;1.00000
 908.757;   89.04000;    -0.55850;1.00000
 914.072;   89.57000;    -0.55993;1.00000
 919.386;   90.10000;    -0.56130;1.00000
 924.7;   90.63000;    -0.56248;1.00000
 930.018;   91.16000;    -0.56356;1.00000
 935.334;   91.69000;    -0.56451;1.00000
 940.653;   92.22000;    -0.56554;1.00000
 945.954;   92.75000;    -0.56627;1.00000
 951.276;   93.28000;    -0.56688;1.00000
 956.589;   93.81000;    -0.56751;1.00000
 961.897;   94.34000;    -0.56809;1.00000
 967.209;   94.87000;    -0.56830;1.00000
 972.511;   95.40000;    -0.56830;1.00000
 977.837;   95.93000;    -0.56835;1.00000
 983.137;   96.46000;    -0.56830;1.00000
 988.457;   96.99000;    -0.56784;1.00000
 993.773;   97.52000;    -0.56739;1.00000
 999.09;   98.05000;    -0.56674;1.00000
1004.4;   98.58000;    -0.56573;1.00000
1009.72;   99.11000;    -0.56449;1.00000
1015.04;   99.64000;    -0.56296;1.00000
1020.35;  100.17;    -0.56136;1.00000
1025.66;  100.7;    -0.55933;1.00000
1030.99;  101.23;    -0.55692;1.00000
1036.31;  101.76;    -0.55412;1.00000
1041.62;  102.29;    -0.55105;1.00000
1046.94;  102.82;    -0.54747;1.00000
1052.25;  103.35;    -0.54368;1.00000
1057.57;  103.88;    -0.53984;1.00000
1062.87;  104.41;    -0.53625;1.00000
1068.2;  104.94;    -0.53264;1.00000
1073.51;  105.47;    -0.52852;1.00000
1078.82;  106;    -0.52398;1.00000
1084.14;  106.53;    -0.51875;1.00000
1089.46;  107.06;    -0.51326;1.00000
1094.77;  107.59;    -0.50807;1.00000
1100.09;  108.12;    -0.50281;1.00000
1105.4;  108.65;    -0.49753;1.00000
1110.72;  109.18;    -0.49256;1.00000
1116.02;  109.71;    -0.48745;1.00000
1121.33;  110.24;    -0.48217;1.00000
1126.64;  110.77;    -0.47674;1.00000
1131.95;  111.3;    -0.47133;1.00000
1137.27;  111.83;    -0.46575;1.00000
1142.58;  112.36;    -0.45997;1.00000
1147.88;  112.89;    -0.45420;1.00000
1153.19;  113.42;    -0.44797;1.00000
1158.51;  113.95;    -0.44127;1.00000
1163.82;  114.48;    -0.43429;1.00000
1169.14;  115.01;    -0.42738;1.00000
1174.43;  115.54;    -0.41993;1.00000
1179.74;  116.07;    -0.41222;1.00000
1185.05;  116.6;    -0.40405;1.00000
1190.37;  117.13;    -0.39535;1.00000
1195.68;  117.66;    -0.38660;1.00000
1200.98;  118.19;    -0.37718;1.00000
1206.3;  118.72;    -0.36738;1.00000
1211.6;  119.25;    -0.35764;1.00000
1216.91;  119.78;    -0.34745;1.00000
1222.21;  120.31;    -0.33790;1.00000
1227.55;  120.84;    -0.32959;1.00000
1232.84;  121.37;    -0.32257;1.00000
1238.15;  121.9;    -0.31732;1.00000
1243.45;  122.43;    -0.31286;1.00000
1248.75;  122.96;    -0.30890;1.00000
1254.06;  123.49;    -0.30518;1.00000
1259.35;  124.02;    -0.30177;1.00000
1264.67;  124.55;    -0.29853;1.00000
1269.98;  125.08;    -0.29491;1.00000
1275.28;  125.61;    -0.29148;1.00000
1280.6;  126.14;    -0.28736;1.00000
1285.91;  126.67;    -0.28265;1.00000
1291.21;  127.2;    -0.27771;1.00000
1296.51;  127.73;    -0.27112;1.00000
1299.11;  127.99;    -0.26729;1.00000

File: ZSCBA.txt
#FILE:                       ;DTA Danilo ZSCBA.ngb-dd9
#FORMAT:                     ;NETZSCH5
#IDENTITY:                   ;Danilo
#DECIMAL:                    ;POINT
#SEPARATOR:                  ;SEMICOLON
#MTYPE:                      ;DTA
#INSTRUMENT:                 ;NETZSCH DSC 404F3
#PROJECT:                    ;Danilo
#DATE/TIME:                  ;10/05/2022 09:40:23
#CORR. FILE:                 ;DTA_Branco_VidroZeolita.ngb-bd9
#LABORATORY:                 ;DSC/DTA
#OPERATOR:                   ;Eguiberto
#REMARK:                     ;Danilo
#SAMPLE:                     ;Zeolita
#SAMPLE MASS /mg:            ;110.10
#MATERIAL:                   ;Vidro + Zeolita
#REFERENCE:                  ;Empty
#REFERENCE MASS /mg:         ;0
#TYPE OF CRUCIBLE:           ;DTA/TG crucible Al2O3
#SAMPLE CRUCIBLE MASS /mg:   ;1343.6
#REFERENCE CRUCIBLE MASS /mg:;1342.95
#CORR. CODE:                 ;020
#EXO:                        ;-1
#RANGE:                      ;20/10.0(K/min)/1300
#SEGMENT:                    ;S1/1

##Temp./øC;Time/min;DTA/(uV/mg);Sensit./(uV/mW)
21.20000;0.0000e+000;-3.0402e-002;1.00000
21.35300;0.44000;-2.1359e-002;1.00000
21.67200;0.88000;-1.4683e-002;1.00000
22.25400;1.32000;-9.0764e-003;1.00000
23.20900;1.76000;-3.8969e-003;1.00000
24.40500;2.20000;1.0907e-003;1.00000
25.86900;2.64000;5.8207e-003;1.00000
27.66300;3.08000;1.0123e-002;1.00000
29.80600;3.52000;1.3921e-002;1.00000
32.38600;3.96000;1.7479e-002;1.00000
35.37200;4.40000;2.0718e-002;1.00000
38.78600;4.84000;2.3984e-002;1.00000
42.59700;5.28000;2.7185e-002;1.00000
46.77600;5.72000;3.0353e-002;1.00000
51.36900;6.16000;3.3713e-002;1.00000
56.32400;6.60000;3.7226e-002;1.00000
61.59600;7.04000;4.0970e-002;1.00000
67.15600;7.48000;4.5119e-002;1.00000
72.93500;7.92000;4.9942e-002;1.00000
78.92800;8.36000;5.5286e-002;1.00000
85.10100;8.80000;6.1167e-002;1.00000
91.40900;9.24000;6.7278e-002;1.00000
97.83500;9.68000;7.3329e-002;1.00000
104.289;10.12000;7.9221e-002;1.00000
110.731;10.56000;8.4630e-002;1.00000
117.161;11.00000;8.9317e-002;1.00000
123.52;11.44000;9.3186e-002;1.00000
129.83;11.88000;9.6168e-002;1.00000
136.07;12.32000;9.8387e-002;1.00000
142.211;12.76000;9.9873e-002;1.00000
148.254;13.20000;0.10081;1.00000
154.156;13.64000;0.10115;1.00000
159.907;14.08000;0.10124;1.00000
165.493;14.52000;0.10081;1.00000
170.939;14.96000;0.10006;1.00000
176.241;15.40000;9.8963e-002;1.00000
181.389;15.84000;9.7527e-002;1.00000
186.417;16.28000;9.5559e-002;1.00000
191.333;16.72000;9.2841e-002;1.00000
196.126;17.16000;8.9328e-002;1.00000
200.819;17.60000;8.4696e-002;1.00000
205.384;18.04000;7.8804e-002;1.00000
209.869;18.48000;7.1745e-002;1.00000
214.262;18.92000;6.2077e-002;1.00000
218.607;19.36000;6.1200e-002;1.00000
222.877;19.80000;5.3729e-002;1.00000
227.109;20.24000;4.0685e-002;1.00000
231.314;20.68000;2.3803e-002;1.00000
235.47;21.12000;4.4450e-003;1.00000
239.632;21.56000;-1.6892e-002;1.00000
243.764;22.00000;-3.8350e-002;1.00000
247.903;22.44000;-5.9111e-002;1.00000
252.046;22.88000;-7.8793e-002;1.00000
256.2;23.32000;-9.7231e-002;1.00000
260.348;23.76000;-0.11433;1.00000
264.496;24.20000;-0.13016;1.00000
268.661;24.64000;-0.14434;1.00000
272.836;25.08000;-0.15757;1.00000
277.009;25.52000;-0.16933;1.00000
281.183;25.96000;-0.17981;1.00000
285.38;26.40000;-0.19004;1.00000
289.586;26.84000;-0.20252;1.00000
293.782;27.28000;-0.21138;1.00000
298.025;27.72000;-0.21913;1.00000
302.267;28.16000;-0.22623;1.00000
306.52;28.60000;-0.23290;1.00000
310.788;29.04000;-0.23920;1.00000
315.067;29.48000;-0.24514;1.00000
319.344;29.92000;-0.25093;1.00000
323.639;30.36000;-0.25642;1.00000
327.946;30.80000;-0.26165;1.00000
332.258;31.24000;-0.26674;1.00000
336.58;31.68000;-0.27163;1.00000
340.903;32.12000;-0.27636;1.00000
345.228;32.56000;-0.28087;1.00000
349.574;33.00000;-0.28528;1.00000
353.914;33.44000;-0.28973;1.00000
358.277;33.88000;-0.29380;1.00000
362.633;34.32000;-0.29771;1.00000
366.976;34.76000;-0.30129;1.00000
371.341;35.20000;-0.30482;1.00000
375.681;35.64000;-0.30825;1.00000
380.051;36.08000;-0.31145;1.00000
384.401;36.52000;-0.31458;1.00000
388.769;36.96000;-0.31758;1.00000
393.113;37.40000;-0.32035;1.00000
397.486;37.84000;-0.32289;1.00000
401.851;38.28000;-0.32531;1.00000
406.19;38.72000;-0.32769;1.00000
410.565;39.16000;-0.32986;1.00000
414.926;39.60000;-0.33194;1.00000
419.304;40.04000;-0.33388;1.00000
423.672;40.48000;-0.33558;1.00000
428.052;40.92000;-0.33711;1.00000
432.416;41.36000;-0.33840;1.00000
436.767;41.80000;-0.33933;1.00000
441.143;42.24000;-0.34026;1.00000
445.511;42.68000;-0.34113;1.00000
449.861;43.12000;-0.34205;1.00000
454.238;43.56000;-0.34275;1.00000
458.618;44.00000;-0.34331;1.00000
462.982;44.44000;-0.34366;1.00000
467.361;44.88000;-0.34399;1.00000
471.735;45.32000;-0.34424;1.00000
476.108;45.76000;-0.34473;1.00000
480.479;46.20000;-0.34517;1.00000
484.857;46.64000;-0.34568;1.00000
489.242;47.08000;-0.34614;1.00000
493.606;47.52000;-0.34678;1.00000
497.99;47.96000;-0.34760;1.00000
502.374;48.40000;-0.34841;1.00000
506.753;48.84000;-0.34939;1.00000
511.137;49.28000;-0.35052;1.00000
515.521;49.72000;-0.35191;1.00000
519.911;50.16000;-0.35324;1.00000
524.278;50.60000;-0.35481;1.00000
528.667;51.04000;-0.35635;1.00000
533.069;51.48000;-0.35808;1.00000
537.451;51.92000;-0.35974;1.00000
541.852;52.36000;-0.36150;1.00000
546.241;52.80000;-0.36317;1.00000
550.634;53.24000;-0.36487;1.00000
555.037;53.68000;-0.36670;1.00000
559.412;54.12000;-0.36847;1.00000
563.816;54.56000;-0.37006;1.00000
568.199;55.00000;-0.37085;1.00000
572.588;55.44000;-0.37304;1.00000
576.984;55.88000;-0.37530;1.00000
581.368;56.32000;-0.37773;1.00000
585.759;56.76000;-0.38006;1.00000
590.16;57.20000;-0.38236;1.00000
594.538;57.64000;-0.38462;1.00000
598.936;58.08000;-0.38687;1.00000
603.34;58.52000;-0.38904;1.00000
607.73;58.96000;-0.39111;1.00000
612.119;59.40000;-0.39336;1.00000
616.516;59.84000;-0.39554;1.00000
620.911;60.28000;-0.39801;1.00000
625.319;60.72000;-0.40014;1.00000
629.71;61.16000;-0.40237;1.00000
634.113;61.60000;-0.40465;1.00000
638.511;62.04000;-0.40688;1.00000
642.914;62.48000;-0.40915;1.00000
647.309;62.92000;-0.41151;1.00000
651.689;63.36000;-0.41383;1.00000
656.112;63.80000;-0.41621;1.00000
660.506;64.24000;-0.41864;1.00000
664.905;64.68000;-0.42095;1.00000
669.293;65.12000;-0.42345;1.00000
673.71;65.56000;-0.42594;1.00000
678.114;66.00000;-0.42825;1.00000
682.517;66.44000;-0.43069;1.00000
686.91;66.88000;-0.43314;1.00000
691.318;67.32000;-0.43552;1.00000
695.704;67.76000;-0.43805;1.00000
700.116;68.20000;-0.44038;1.00000
704.513;68.64000;-0.44292;1.00000
708.914;69.08000;-0.44534;1.00000
713.324;69.52000;-0.44808;1.00000
717.721;69.96000;-0.45065;1.00000
722.125;70.40000;-0.45311;1.00000
726.518;70.84000;-0.45558;1.00000
730.925;71.28000;-0.45816;1.00000
735.33;71.72000;-0.46063;1.00000
739.726;72.16000;-0.46305;1.00000
744.114;72.60000;-0.46559;1.00000
748.531;73.04000;-0.46808;1.00000
752.938;73.48000;-0.47070;1.00000
757.341;73.92000;-0.47319;1.00000
761.749;74.36000;-0.47548;1.00000
766.156;74.80000;-0.47771;1.00000
770.556;75.24000;-0.47987;1.00000
774.955;75.68000;-0.48212;1.00000
779.366;76.12000;-0.48412;1.00000
783.757;76.56000;-0.48617;1.00000
788.167;77.00000;-0.48831;1.00000
792.568;77.44000;-0.49031;1.00000
796.979;77.88000;-0.49247;1.00000
801.373;78.32000;-0.49452;1.00000
805.778;78.76000;-0.49651;1.00000
810.186;79.20000;-0.49853;1.00000
814.58;79.64000;-0.50064;1.00000
818.997;80.08000;-0.50285;1.00000
823.403;80.52000;-0.50507;1.00000
827.82;80.96000;-0.50710;1.00000
832.245;81.40000;-0.50924;1.00000
836.657;81.84000;-0.51122;1.00000
841.06;82.28000;-0.51303;1.00000
845.45;82.72000;-0.51490;1.00000
849.854;83.16000;-0.51669;1.00000
854.259;83.60000;-0.51883;1.00000
858.67;84.04000;-0.52114;1.00000
863.076;84.48000;-0.52391;1.00000
867.48;84.92000;-0.52706;1.00000
871.885;85.36000;-0.53084;1.00000
876.305;85.80000;-0.53429;1.00000
880.707;86.24000;-0.53476;1.00000
885.107;86.68000;-0.52949;1.00000
889.516;87.12000;-0.51754;1.00000
893.92;87.56000;-0.50271;1.00000
898.317;88.00000;-0.48940;1.00000
902.72;88.44000;-0.47890;1.00000
907.122;88.88000;-0.47126;1.00000
911.523;89.32000;-0.46613;1.00000
915.931;89.76000;-0.46306;1.00000
920.341;90.20000;-0.46134;1.00000
924.757;90.64000;-0.46057;1.00000
929.165;91.08000;-0.46019;1.00000
933.585;91.52000;-0.46004;1.00000
937.995;91.96000;-0.46032;1.00000
942.423;92.40000;-0.46087;1.00000
946.838;92.84000;-0.46141;1.00000
951.246;93.28000;-0.46203;1.00000
955.664;93.72000;-0.46274;1.00000
960.081;94.16000;-0.46362;1.00000
964.494;94.60000;-0.46438;1.00000
968.915;95.04000;-0.46504;1.00000
973.322;95.48000;-0.46541;1.00000
977.729;95.92000;-0.46606;1.00000
982.151;96.36000;-0.46656;1.00000
986.549;96.80000;-0.46691;1.00000
990.954;97.24000;-0.46745;1.00000
995.369;97.68000;-0.46768;1.00000
999.776;98.12000;-0.46803;1.00000
1004.2;98.56000;-0.46813;1.00000
1008.61;99.00000;-0.46827;1.00000
1013.03;99.44000;-0.46838;1.00000
1017.45;99.88000;-0.46824;1.00000
1021.85;100.32;-0.46809;1.00000
1026.27;100.76;-0.46775;1.00000
1030.67;101.2;-0.46745;1.00000
1035.09;101.64;-0.46702;1.00000
1039.49;102.08;-0.46651;1.00000
1043.92;102.52;-0.46594;1.00000
1048.34;102.96;-0.46524;1.00000
1052.77;103.4;-0.46437;1.00000
1057.17;103.84;-0.46337;1.00000
1061.6;104.28;-0.46226;1.00000
1066.02;104.72;-0.46111;1.00000
1070.42;105.16;-0.45944;1.00000
1074.83;105.6;-0.45764;1.00000
1079.24;106.04;-0.45578;1.00000
1083.64;106.48;-0.45392;1.00000
1088.06;106.92;-0.45189;1.00000
1092.47;107.36;-0.44965;1.00000
1096.87;107.8;-0.44727;1.00000
1101.28;108.24;-0.44485;1.00000
1105.69;108.68;-0.44237;1.00000
1110.13;109.12;-0.43984;1.00000
1114.53;109.56;-0.43675;1.00000
1118.92;110;-0.43361;1.00000
1123.33;110.44;-0.43052;1.00000
1127.75;110.88;-0.42762;1.00000
1132.16;111.32;-0.42462;1.00000
1136.58;111.76;-0.42182;1.00000
1140.98;112.2;-0.41896;1.00000
1145.39;112.64;-0.41607;1.00000
1149.8;113.08;-0.41340;1.00000
1154.21;113.52;-0.41085;1.00000
1158.62;113.96;-0.40821;1.00000
1163.04;114.4;-0.40565;1.00000
1167.44;114.84;-0.40294;1.00000
1171.85;115.28;-0.40034;1.00000
1176.25;115.72;-0.39780;1.00000
1180.68;116.16;-0.39555;1.00000
1185.07;116.6;-0.39331;1.00000
1189.47;117.04;-0.39107;1.00000
1193.9;117.48;-0.38912;1.00000
1198.3;117.92;-0.38685;1.00000
1202.7;118.36;-0.38467;1.00000
1207.11;118.8;-0.38253;1.00000
1211.51;119.24;-0.38049;1.00000
1215.91;119.68;-0.37854;1.00000
1220.32;120.12;-0.37644;1.00000
1224.72;120.56;-0.37457;1.00000
1229.14;121;-0.37237;1.00000
1233.55;121.44;-0.37018;1.00000
1237.96;121.88;-0.36837;1.00000
1242.36;122.32;-0.36669;1.00000
1246.76;122.76;-0.36415;1.00000
1251.17;123.2;-0.36199;1.00000
1255.57;123.64;-0.35983;1.00000
1259.98;124.08;-0.35758;1.00000
1264.37;124.52;-0.35484;1.00000
1268.79;124.96;-0.35200;1.00000
1273.21;125.4;-0.34939;1.00000
1277.62;125.84;-0.34601;1.00000
1282.02;126.28;-0.34193;1.00000
1286.43;126.72;-0.33705;1.00000
1290.8;127.16;-0.33145;1.00000
1295.21;127.6;-0.32512;1.00000
1299.22;128;-0.31943;1.00000