Folder: pyOrigin/charts/20230801/DTA/SATURADAS (part 2)

File: Cs-ZCFA.txt
#FILE:                       ;Dta_Danilo_ZeoACs 1.ngb-dd9
#FORMAT:                     ;NETZSCH5
#IDENTITY:                   ;Danilo
#DECIMAL:                    ;POINT
#SEPARATOR:                  ;SEMICOLON
#MTYPE:                      ;DTA
#INSTRUMENT:                 ;NETZSCH DSC 404F3
#PROJECT:                    ;Danilo
#DATE/TIME:                  ;17/05/2022 17:07:11
#CORR. FILE:                 ;DTA Danilo Branco 04-07-22.ngb-bd9
#LABORATORY:                 ;DSC/DTA
#OPERATOR:                   ;Eguiberto
#REMARK:                     ;Danilo
#SAMPLE:                     ;ZeoACs 1
#SAMPLE MASS /mg:            ;145.9
#MATERIAL:                   ;Vidro + Zeolita
#REFERENCE:                  ;Empty
#REFERENCE MASS /mg:         ;0
#TYPE OF CRUCIBLE:           ;DTA/TG crucible Al2O3
#SAMPLE CRUCIBLE MASS /mg:   ;1352.0
#REFERENCE CRUCIBLE MASS /mg:;1342.9
#CORR. CODE:                 ;020
#EXO:                        ;-1
#RANGE:                      ;20/10.0(K/min)/1300
#SEGMENT:                    ;S1/1

##Temp./øC;Time/min;DTA/(uV/mg);Sensit./(uV/mW)
  21.98200;0.0000e+000; 4.5233e-003;1.00000
  22.06000;    0.53000; 3.9585e-003;1.00000
  22.45000;    1.06000; 3.9480e-003;1.00000
  23.28700;    1.59000; 5.0305e-003;1.00000
  24.56500;    2.12000; 7.1326e-003;1.00000
  26.25600;    2.65000; 9.7472e-003;1.00000
  28.42400;    3.18000; 1.2226e-002;1.00000
  31.14500;    3.71000; 1.4354e-002;1.00000
  34.49100;    4.24000; 1.6211e-002;1.00000
  38.44500;    4.77000; 1.8030e-002;1.00000
  42.97100;    5.30000; 2.0044e-002;1.00000
  48.11500;    5.83000; 2.1978e-002;1.00000
  53.78000;    6.36000; 2.4347e-002;1.00000
  59.92400;    6.89000; 2.6977e-002;1.00000
  66.52400;    7.42000; 3.0408e-002;1.00000
  73.48900;    7.95000; 3.5266e-002;1.00000
  80.70200;    8.48000; 4.1536e-002;1.00000
  88.19300;    9.01000; 4.8809e-002;1.00000
  95.84500;    9.54000; 5.6580e-002;1.00000
 103.581;   10.07000; 6.4136e-002;1.00000
 111.33;   10.60000; 7.0448e-002;1.00000
 119.02;   11.13000; 7.5154e-002;1.00000
 126.648;   11.66000; 7.9123e-002;1.00000
 134.164;   12.19000; 8.1220e-002;1.00000
 141.595;   12.72000; 8.1602e-002;1.00000
 148.83;   13.25000; 8.1785e-002;1.00000
 155.893;   13.78000; 8.0927e-002;1.00000
 162.722;   14.31000; 7.9588e-002;1.00000
 169.334;   14.84000; 7.8140e-002;1.00000
 175.751;   15.37000; 7.7779e-002;1.00000
 181.962;   15.90000; 7.6095e-002;1.00000
 187.984;   16.43000; 7.5306e-002;1.00000
 193.83;   16.96000; 7.2226e-002;1.00000
 199.517;   17.49000; 6.6165e-002;1.00000
 205.05;   18.02000; 5.7030e-002;1.00000
 210.463;   18.55000; 4.4809e-002;1.00000
 215.756;   19.08000; 2.9916e-002;1.00000
 220.954;   19.61000; 1.2304e-002;1.00000
 226.089;   20.14000;-7.5144e-003;1.00000
 231.173;   20.67000;-2.8557e-002;1.00000
 236.218;   21.20000;-4.9751e-002;1.00000
 241.217;   21.73000;-7.0118e-002;1.00000
 246.21;   22.26000;-8.9283e-002;1.00000
 251.194;   22.79000;    -0.10567;1.00000
 256.171;   23.32000;    -0.12026;1.00000
 261.145;   23.85000;    -0.13344;1.00000
 266.136;   24.38000;    -0.14536;1.00000
 271.141;   24.91000;    -0.15625;1.00000
 276.167;   25.44000;    -0.16631;1.00000
 281.182;   25.97000;    -0.17571;1.00000
 286.215;   26.50000;    -0.18452;1.00000
 291.278;   27.03000;    -0.19282;1.00000
 296.374;   27.56000;    -0.20052;1.00000
 301.492;   28.09000;    -0.20783;1.00000
 306.608;   28.62000;    -0.21476;1.00000
 311.74;   29.15000;    -0.22138;1.00000
 316.918;   29.68000;    -0.22765;1.00000
 322.094;   30.21000;    -0.23369;1.00000
 327.285;   30.74000;    -0.23935;1.00000
 332.498;   31.27000;    -0.24478;1.00000
 337.71;   31.80000;    -0.25008;1.00000
 342.931;   32.33000;    -0.25524;1.00000
 348.155;   32.86000;    -0.26030;1.00000
 353.385;   33.39000;    -0.26526;1.00000
 358.622;   33.92000;    -0.27016;1.00000
 363.862;   34.45000;    -0.27503;1.00000
 369.11;   34.98000;    -0.27967;1.00000
 374.379;   35.51000;    -0.28437;1.00000
 379.622;   36.04000;    -0.28893;1.00000
 384.866;   36.57000;    -0.29333;1.00000
 390.121;   37.10000;    -0.29766;1.00000
 395.389;   37.63000;    -0.30174;1.00000
 400.646;   38.16000;    -0.30584;1.00000
 405.906;   38.69000;    -0.30990;1.00000
 411.179;   39.22000;    -0.31382;1.00000
 416.427;   39.75000;    -0.31768;1.00000
 421.692;   40.28000;    -0.32138;1.00000
 426.96;   40.81000;    -0.32506;1.00000
 432.215;   41.34000;    -0.32877;1.00000
 437.49;   41.87000;    -0.33234;1.00000
 442.75;   42.40000;    -0.33588;1.00000
 448.011;   42.93000;    -0.33924;1.00000
 453.285;   43.46000;    -0.34241;1.00000
 458.539;   43.99000;    -0.34558;1.00000
 463.806;   44.52000;    -0.34864;1.00000
 469.072;   45.05000;    -0.35164;1.00000
 474.338;   45.58000;    -0.35445;1.00000
 479.607;   46.11000;    -0.35734;1.00000
 484.874;   46.64000;    -0.35993;1.00000
 490.16;   47.17000;    -0.36215;1.00000
 495.436;   47.70000;    -0.36427;1.00000
 500.708;   48.23000;    -0.36629;1.00000
 505.978;   48.76000;    -0.36822;1.00000
 511.261;   49.29000;    -0.36999;1.00000
 516.544;   49.82000;    -0.37178;1.00000
 521.815;   50.35000;    -0.37345;1.00000
 527.084;   50.88000;    -0.37507;1.00000
 532.375;   51.41000;    -0.37673;1.00000
 537.655;   51.94000;    -0.37838;1.00000
 542.945;   52.47000;    -0.38002;1.00000
 548.23;   53.00000;    -0.38156;1.00000
 553.518;   53.53000;    -0.38312;1.00000
 558.807;   54.06000;    -0.38459;1.00000
 564.091;   54.59000;    -0.38601;1.00000
 569.371;   55.12000;    -0.38740;1.00000
 574.657;   55.65000;    -0.38878;1.00000
 579.959;   56.18000;    -0.39018;1.00000
 585.253;   56.71000;    -0.39178;1.00000
 590.556;   57.24000;    -0.39299;1.00000
 595.838;   57.77000;    -0.39431;1.00000
 601.134;   58.30000;    -0.39565;1.00000
 606.431;   58.83000;    -0.39708;1.00000
 611.715;   59.36000;    -0.39832;1.00000
 616.999;   59.89000;    -0.39967;1.00000
 622.285;   60.42000;    -0.40104;1.00000
 627.575;   60.95000;    -0.40250;1.00000
 632.88;   61.48000;    -0.40390;1.00000
 638.159;   62.01000;    -0.40529;1.00000
 643.456;   62.54000;    -0.40698;1.00000
 648.75;   63.07000;    -0.40852;1.00000
 654.056;   63.60000;    -0.41013;1.00000
 659.363;   64.13000;    -0.41191;1.00000
 664.663;   64.66000;    -0.41359;1.00000
 669.967;   65.19000;    -0.41510;1.00000
 675.27;   65.72000;    -0.41662;1.00000
 680.572;   66.25000;    -0.41840;1.00000
 685.89;   66.78000;    -0.41994;1.00000
 691.189;   67.31000;    -0.42114;1.00000
 696.491;   67.84000;    -0.42243;1.00000
 701.781;   68.37000;    -0.42360;1.00000
 707.091;   68.90000;    -0.42494;1.00000
 712.392;   69.43000;    -0.42620;1.00000
 717.686;   69.96000;    -0.42822;1.00000
 722.981;   70.49000;    -0.43170;1.00000
 728.286;   71.02000;    -0.43643;1.00000
 733.596;   71.55000;    -0.44080;1.00000
 738.906;   72.08000;    -0.44448;1.00000
 744.219;   72.61000;    -0.44822;1.00000
 749.529;   73.14000;    -0.45187;1.00000
 754.827;   73.67000;    -0.45522;1.00000
 760.134;   74.20000;    -0.45862;1.00000
 765.427;   74.73000;    -0.46207;1.00000
 770.732;   75.26000;    -0.46557;1.00000
 776.037;   75.79000;    -0.46902;1.00000
 781.344;   76.32000;    -0.47248;1.00000
 786.656;   76.85000;    -0.47577;1.00000
 791.953;   77.38000;    -0.47913;1.00000
 797.258;   77.91000;    -0.48216;1.00000
[...]
 813.188;   79.50000;    -0.48975;1.00000
 818.496;   80.03000;    -0.49176;1.00000
 823.799;   80.56000;    -0.49340;1.00000
 829.107;   81.09000;    -0.49466;1.00000
 834.408;   81.62000;    -0.49576;1.00000
 839.717;   82.15000;    -0.49628;1.00000
 845.021;   82.68000;    -0.49655;1.00000
 850.328;   83.21000;    -0.49644;1.00000
 855.644;   83.74000;    -0.49599;1.00000
 860.944;   84.27000;    -0.49542;1.00000
 866.252;   84.80000;    -0.49451;1.00000
 871.565;   85.33000;    -0.49324;1.00000
 876.866;   85.86000;    -0.49161;1.00000
 882.183;   86.39000;    -0.48949;1.00000
 887.481;   86.92000;    -0.48703;1.00000
 892.8;   87.45000;    -0.48427;1.00000
 898.116;   87.98000;    -0.48143;1.00000
 903.408;   88.51000;    -0.47836;1.00000
 908.727;   89.04000;    -0.47539;1.00000
 914.035;   89.57000;    -0.47264;1.00000
 919.34;   90.10000;    -0.47042;1.00000
 924.66;   90.63000;    -0.46885;1.00000
 929.986;   91.16000;    -0.46826;1.00000
 935.3;   91.69000;    -0.46879;1.00000
 940.62;   92.22000;    -0.47067;1.00000
 945.921;   92.75000;    -0.47451;1.00000
 951.246;   93.28000;    -0.47964;1.00000
 956.546;   93.81000;    -0.48375;1.00000
 961.88;   94.34000;    -0.48410;1.00000
 967.196;   94.87000;    -0.48096;1.00000
 972.508;   95.40000;    -0.47621;1.00000
 977.807;   95.93000;    -0.47163;1.00000
 983.115;   96.46000;    -0.46785;1.00000
 988.422;   96.99000;    -0.46492;1.00000
 993.737;   97.52000;    -0.46298;1.00000
 999.049;   98.05000;    -0.46163;1.00000
1004.35;   98.58000;    -0.46048;1.00000
1009.68;   99.11000;    -0.45997;1.00000
1014.99;   99.64000;    -0.45943;1.00000
1020.3;  100.17;    -0.45900;1.00000
1025.64;  100.7;    -0.45852;1.00000
1030.96;  101.23;    -0.45782;1.00000
1036.27;  101.76;    -0.45695;1.00000
1041.58;  102.29;    -0.45587;1.00000
1046.9;  102.82;    -0.45464;1.00000
1052.24;  103.35;    -0.45324;1.00000
1057.55;  103.88;    -0.45126;1.00000
1062.86;  104.41;    -0.44920;1.00000
1068.19;  104.94;    -0.44673;1.00000
1073.5;  105.47;    -0.44416;1.00000
1078.8;  106;    -0.44134;1.00000
1084.13;  106.53;    -0.43819;1.00000
1089.44;  107.06;    -0.43496;1.00000
1094.75;  107.59;    -0.43105;1.00000
1100.07;  108.12;    -0.42740;1.00000
1105.39;  108.65;    -0.42356;1.00000
1110.7;  109.18;    -0.41951;1.00000
1116.02;  109.71;    -0.41503;1.00000
1121.31;  110.24;    -0.41067;1.00000
1126.63;  110.77;    -0.40635;1.00000
1131.94;  111.3;    -0.40162;1.00000
1137.25;  111.83;    -0.39699;1.00000
1142.56;  112.36;    -0.39213;1.00000
1147.87;  112.89;    -0.38734;1.00000
1153.18;  113.42;    -0.38260;1.00000
1158.5;  113.95;    -0.37840;1.00000
1163.81;  114.48;    -0.37515;1.00000
1169.12;  115.01;    -0.37257;1.00000
1174.43;  115.54;    -0.37033;1.00000
1179.74;  116.07;    -0.36747;1.00000
1185.06;  116.6;    -0.36385;1.00000
1190.36;  117.13;    -0.35984;1.00000
1195.67;  117.66;    -0.35619;1.00000
1200.98;  118.19;    -0.35239;1.00000
1206.28;  118.72;    -0.34862;1.00000
1211.58;  119.25;    -0.34478;1.00000
1216.9;  119.78;    -0.33993;1.00000
1222.21;  120.31;    -0.33435;1.00000
1227.52;  120.84;    -0.32779;1.00000
1232.83;  121.37;    -0.32002;1.00000
1238.13;  121.9;    -0.31170;1.00000
1243.43;  122.43;    -0.30268;1.00000
1248.73;  122.96;    -0.29243;1.00000
1254.04;  123.49;    -0.28216;1.00000
1259.35;  124.02;    -0.27141;1.00000
1264.65;  124.55;    -0.25991;1.00000
1269.95;  125.08;    -0.24851;1.00000
1275.25;  125.61;    -0.23728;1.00000
1280.57;  126.14;    -0.22592;1.00000
1285.88;  126.67;    -0.21478;1.00000
1291.21;  127.2;    -0.20316;1.00000
1296.5;  127.73;    -0.19154;1.00000
1299.2;  128;    -0.18542;1.00000

File: Cs-ZSCBA_v2.txt
#FILE:                       ;Dta_Danilo_ZAC-Cs.ngb-dd9
#FORMAT:                     ;NETZSCH5
#IDENTITY:                   ;Danilo
#DECIMAL:                    ;POINT
#SEPARATOR:                  ;SEMICOLON
#MTYPE:                      ;DTA
#INSTRUMENT:                 ;NETZSCH DSC 404F3
#PROJECT:                    ;Danilo
#DATE/TIME:                  ;17/05/2022 08:27:25
#CORR. FILE:                 ;DTA Danilo Branco 04-07-22.ngb-bd9
#LABORATORY:                 ;DSC/DTA
#OPERATOR:                   ;Eguiberto
#REMARK:                     ;Danilo
#SAMPLE:                     ;ZAC 2
#SAMPLE MASS /mg:            ;87.8
#MATERIAL:                   ;Vidro + Zeolita
#REFERENCE:                  ;Empty
#REFERENCE MASS /mg:         ;0
#TYPE OF CRUCIBLE:           ;DTA/TG crucible Al2O3
#SAMPLE CRUCIBLE MASS /mg:   ;1336.7
#REFERENCE CRUCIBLE MASS /mg:;1342.9
#CORR. CODE:                 ;020
#EXO:                        ;-1
#RANGE:                      ;20/10.0(K/min)/1300
#SEGMENT:                    ;S1/1

##Temp./ C Time/min DTA/(uV/mg) Sensit./(uV/mW)
26.95600;0.0000e+000;1.6907e-002;1.00000
27.89900;0.44000;1.5755e-002;1.00000
28.68900;0.88000;1.4820e-002;1.00000
29.50100;1.32000;1.4366e-002;1.00000
30.40400;1.76000;1.4562e-002;1.00000
31.42900;2.20000;1.5333e-002;1.00000
32.61900;2.64000;1.6479e-002;1.00000
34.03900;3.08000;1.7794e-002;1.00000
35.74000;3.52000;1.9157e-002;1.00000
37.78000;3.96000;2.0382e-002;1.00000
40.16200;4.40000;2.1787e-002;1.00000
42.90600;4.84000;2.3160e-002;1.00000
46.05300;5.28000;2.4771e-002;1.00000
49.55600;5.72000;2.6577e-002;1.00000
53.44800;6.16000;2.8500e-002;1.00000
57.72800;6.60000;3.0776e-002;1.00000
62.35100;7.04000;3.3491e-002;1.00000
67.30100;7.48000;3.6586e-002;1.00000
72.52500;7.92000;4.0305e-002;1.00000
78.01100;8.36000;4.4625e-002;1.00000
83.69600;8.80000;4.9315e-002;1.00000
89.63200;9.24000;5.4507e-002;1.00000
95.70000;9.68000;5.9577e-002;1.00000
101.892;10.12000;6.4421e-002;1.00000
108.159;10.56000;6.8863e-002;1.00000
114.407;11.00000;7.2607e-002;1.00000
120.684;11.44000;7.5856e-002;1.00000
126.94;11.88000;7.8264e-002;1.00000
133.173;12.32000;8.0160e-002;1.00000
139.349;12.76000;8.1734e-002;1.00000
145.467;13.20000;8.2817e-002;1.00000
151.474;13.64000;8.3773e-002;1.00000
157.348;14.08000;8.4681e-002;1.00000
163.113;14.52000;8.5415e-002;1.00000
168.708;14.96000;8.6340e-002;1.00000
174.194;15.40000;8.7143e-002;1.00000
179.532;15.84000;8.7803e-002;1.00000
184.749;16.28000;8.7819e-002;1.00000
189.84;16.72000;8.7259e-002;1.00000
194.806;17.16000;8.5806e-002;1.00000
199.675;17.60000;8.3144e-002;1.00000
204.415;18.04000;7.8956e-002;1.00000
209.045;18.48000;7.3014e-002;1.00000
213.582;18.92000;6.5012e-002;1.00000
218.049;19.36000;5.4898e-002;1.00000
222.471;19.80000;4.2755e-002;1.00000
226.808;20.24000;2.8870e-002;1.00000
231.093;20.68000;1.3738e-002;1.00000
235.34;21.12000;-2.0387e-003;1.00000
239.564;21.56000;-1.8021e-002;1.00000
243.774;22.00000;-3.3718e-002;1.00000
247.953;22.44000;-4.8819e-002;1.00000
252.113;22.88000;-6.3106e-002;1.00000
256.272;23.32000;-7.6542e-002;1.00000
260.435;23.76000;-8.8827e-002;1.00000
264.593;24.20000;-0.10042;1.00000
268.73;24.64000;-0.11092;1.00000
272.893;25.08000;-0.12063;1.00000
277.057;25.52000;-0.12963;1.00000
281.244;25.96000;-0.13783;1.00000
285.424;26.40000;-0.14559;1.00000
289.619;26.84000;-0.15273;1.00000
293.849;27.28000;-0.15937;1.00000
298.056;27.72000;-0.16538;1.00000
302.293;28.16000;-0.17106;1.00000
306.536;28.60000;-0.17637;1.00000
310.793;29.04000;-0.18146;1.00000
315.065;29.48000;-0.18627;1.00000
319.352;29.92000;-0.19075;1.00000
323.642;30.36000;-0.19504;1.00000
327.929;30.80000;-0.19919;1.00000
332.249;31.24000;-0.20322;1.00000
336.554;31.68000;-0.20708;1.00000
340.888;32.12000;-0.21076;1.00000
345.217;32.56000;-0.21443;1.00000
349.549;33.00000;-0.21809;1.00000
353.89;33.44000;-0.22157;1.00000
358.24;33.88000;-0.22495;1.00000
362.592;34.32000;-0.22829;1.00000
366.941;34.76000;-0.23160;1.00000
371.295;35.20000;-0.23480;1.00000
375.657;35.64000;-0.23806;1.00000
380.013;36.08000;-0.24106;1.00000
384.378;36.52000;-0.24404;1.00000
388.737;36.96000;-0.24697;1.00000
393.102;37.40000;-0.24986;1.00000
397.467;37.84000;-0.25243;1.00000
401.824;38.28000;-0.25504;1.00000
406.203;38.72000;-0.25772;1.00000
410.558;39.16000;-0.26018;1.00000
414.917;39.60000;-0.26263;1.00000
419.281;40.04000;-0.26498;1.00000
423.655;40.48000;-0.26731;1.00000
428.027;40.92000;-0.26962;1.00000
432.388;41.36000;-0.27209;1.00000
436.753;41.80000;-0.27448;1.00000
441.119;42.24000;-0.27680;1.00000
445.509;42.68000;-0.27895;1.00000
449.882;43.12000;-0.28089;1.00000
454.262;43.56000;-0.28291;1.00000
458.632;44.00000;-0.28466;1.00000
463.009;44.44000;-0.28645;1.00000
467.376;44.88000;-0.28823;1.00000
471.741;45.32000;-0.29012;1.00000
476.122;45.76000;-0.29189;1.00000
480.485;46.20000;-0.29368;1.00000
484.866;46.64000;-0.29545;1.00000
489.243;47.08000;-0.29708;1.00000
493.617;47.52000;-0.29879;1.00000
498;47.96000;-0.30036;1.00000
502.371;48.40000;-0.30193;1.00000
506.759;48.84000;-0.30355;1.00000
511.145;49.28000;-0.30503;1.00000
515.529;49.72000;-0.30657;1.00000
519.899;50.16000;-0.30803;1.00000
524.296;50.60000;-0.30970;1.00000
528.677;51.04000;-0.31123;1.00000
533.072;51.48000;-0.31286;1.00000
537.466;51.92000;-0.31437;1.00000
541.845;52.36000;-0.31593;1.00000
546.253;52.80000;-0.31768;1.00000
550.626;53.24000;-0.31911;1.00000
555.035;53.68000;-0.32069;1.00000
559.397;54.12000;-0.32223;1.00000
563.798;54.56000;-0.32374;1.00000
568.193;55.00000;-0.32441;1.00000
572.578;55.44000;-0.32599;1.00000
576.957;55.88000;-0.32795;1.00000
581.355;56.32000;-0.32994;1.00000
585.746;56.76000;-0.33197;1.00000
590.137;57.20000;-0.33371;1.00000
594.531;57.64000;-0.33560;1.00000
598.923;58.08000;-0.33750;1.00000
603.329;58.52000;-0.33914;1.00000
607.735;58.96000;-0.34094;1.00000
612.129;59.40000;-0.34272;1.00000
616.53;59.84000;-0.34430;1.00000
620.913;60.28000;-0.34598;1.00000
625.315;60.72000;-0.34760;1.00000
629.714;61.16000;-0.34930;1.00000
634.1;61.60000;-0.35092;1.00000
638.494;62.04000;-0.35266;1.00000
642.892;62.48000;-0.35444;1.00000
647.285;62.92000;-0.35634;1.00000
651.667;63.36000;-0.35814;1.00000
656.074;63.80000;-0.35975;1.00000
660.468;64.24000;-0.36157;1.00000
664.862;64.68000;-0.36339;1.00000
669.269;65.12000;-0.36500;1.00000
673.673;65.56000;-0.36680;1.00000
678.076;66.00000;-0.36880;1.00000
682.477;66.44000;-0.37082;1.00000
686.888;66.88000;-0.37279;1.00000
691.291;67.32000;-0.37457;1.00000
695.695;67.76000;-0.37641;1.00000
700.097;68.20000;-0.37831;1.00000
704.499;68.64000;-0.38032;1.00000
708.906;69.08000;-0.38257;1.00000
713.312;69.52000;-0.38458;1.00000
717.71;69.96000;-0.38647;1.00000
722.113;70.40000;-0.38846;1.00000
726.501;70.84000;-0.39062;1.00000
730.907;71.28000;-0.39236;1.00000
735.31;71.72000;-0.39414;1.00000
739.724;72.16000;-0.39628;1.00000
744.123;72.60000;-0.39856;1.00000
748.537;73.04000;-0.40075;1.00000
752.948;73.48000;-0.40295;1.00000
757.341;73.92000;-0.40511;1.00000
761.747;74.36000;-0.40727;1.00000
766.137;74.80000;-0.40943;1.00000
770.555;75.24000;-0.41160;1.00000
774.954;75.68000;-0.41380;1.00000
779.349;76.12000;-0.41588;1.00000
783.748;76.56000;-0.41804;1.00000
788.161;77.00000;-0.41997;1.00000
792.555;77.44000;-0.42228;1.00000
796.96;77.88000;-0.42439;1.00000
801.367;78.32000;-0.42656;1.00000
805.77;78.76000;-0.42893;1.00000
810.193;79.20000;-0.43107;1.00000
814.594;79.64000;-0.43345;1.00000
819.004;80.08000;-0.43554;1.00000
823.416;80.52000;-0.43779;1.00000
827.833;80.96000;-0.43993;1.00000
832.238;81.40000;-0.44182;1.00000
836.647;81.84000;-0.44387;1.00000
841.048;82.28000;-0.44584;1.00000
845.457;82.72000;-0.44785;1.00000
849.867;83.16000;-0.44984;1.00000
854.261;83.60000;-0.45193;1.00000
858.663;84.04000;-0.45405;1.00000
863.093;84.48000;-0.45608;1.00000
867.509;84.92000;-0.45813;1.00000
871.914;85.36000;-0.46008;1.00000
876.315;85.80000;-0.46182;1.00000
880.727;86.24000;-0.46346;1.00000
885.127;86.68000;-0.46509;1.00000
889.534;87.12000;-0.46652;1.00000
893.944;87.56000;-0.46761;1.00000
898.342;88.00000;-0.46850;1.00000
902.754;88.44000;-0.46933;1.00000
907.162;88.88000;-0.46998;1.00000
911.568;89.32000;-0.47004;1.00000
915.989;89.76000;-0.46990;1.00000
920.412;90.20000;-0.46934;1.00000
924.811;90.64000;-0.46801;1.00000
929.212;91.08000;-0.46654;1.00000
933.62;91.52000;-0.46456;1.00000
938.022;91.96000;-0.46241;1.00000
942.423;92.40000;-0.45988;1.00000
946.829;92.84000;-0.45683;1.00000
951.227;93.28000;-0.45376;1.00000
955.643;93.72000;-0.45028;1.00000
960.045;94.16000;-0.44643;1.00000
964.461;94.60000;-0.44208;1.00000
968.872;95.04000;-0.43759;1.00000
973.269;95.48000;-0.43310;1.00000
977.689;95.92000;-0.42894;1.00000
982.089;96.36000;-0.42511;1.00000
986.509;96.80000;-0.42185;1.00000
990.907;97.24000;-0.41912;1.00000
995.329;97.68000;-0.41742;1.00000
999.735;98.12000;-0.41644;1.00000
1004.15;98.56000;-0.41671;1.00000
1008.58;99.00000;-0.41790;1.00000
1013;99.44000;-0.42032;1.00000
1017.42;99.88000;-0.42378;1.00000
1021.83;100.32;-0.42835;1.00000
1026.25;100.76;-0.43460;1.00000
1030.67;101.2;-0.44245;1.00000
1035.08;101.64;-0.44603;1.00000
1039.5;102.08;-0.44156;1.00000
1043.91;102.52;-0.43471;1.00000
1048.31;102.96;-0.42961;1.00000
1052.71;103.4;-0.42542;1.00000
1057.13;103.84;-0.42204;1.00000
1061.55;104.28;-0.41907;1.00000
1065.96;104.72;-0.41643;1.00000
1070.37;105.16;-0.41391;1.00000
1074.77;105.6;-0.41190;1.00000
1079.19;106.04;-0.40997;1.00000
1083.6;106.48;-0.40827;1.00000
1088.01;106.92;-0.40670;1.00000
1092.43;107.36;-0.40518;1.00000
1096.86;107.8;-0.40387;1.00000
1101.26;108.24;-0.40260;1.00000
1105.68;108.68;-0.40124;1.00000
1110.1;109.12;-0.39977;1.00000
1114.5;109.56;-0.39843;1.00000
1118.92;110;-0.39694;1.00000
1123.33;110.44;-0.39528;1.00000
1127.74;110.88;-0.39365;1.00000
1132.15;111.32;-0.39184;1.00000
1136.55;111.76;-0.39035;1.00000
1140.96;112.2;-0.38862;1.00000
1145.36;112.64;-0.38706;1.00000
1149.78;113.08;-0.38535;1.00000
1154.18;113.52;-0.38370;1.00000
1158.6;113.96;-0.38199;1.00000
1163.02;114.4;-0.38019;1.00000
1167.43;114.84;-0.37837;1.00000
1171.84;115.28;-0.37663;1.00000
1176.25;115.72;-0.37471;1.00000
1180.66;116.16;-0.37292;1.00000
1185.05;116.6;-0.37101;1.00000
1189.46;117.04;-0.36906;1.00000
1193.87;117.48;-0.36721;1.00000
1198.27;117.92;-0.36521;1.00000
1202.68;118.36;-0.36323;1.00000
1207.09;118.8;-0.36130;1.00000
1211.5;119.24;-0.35937;1.00000
1215.93;119.68;-0.35734;1.00000
1220.31;120.12;-0.35529;1.00000
1224.74;120.56;-0.35333;1.00000
1229.15;121;-0.35138;1.00000
1233.56;121.44;-0.34930;1.00000
1237.96;121.88;-0.34715;1.00000
1242.37;122.32;-0.34471;1.00000
1246.76;122.76;-0.34229;1.00000
1251.16;123.2;-0.34016;1.00000
1255.57;123.64;-0.33811;1.00000
1259.97;124.08;-0.33598;1.00000
1264.39;124.52;-0.33392;1.00000
1268.8;124.96;-0.33185;1.00000
1273.22;125.4;-0.32967;1.00000
1277.61;125.84;-0.32746;1.00000
1282.02;126.28;-0.32501;1.00000
1286.43;126.72;-0.32284;1.00000
1290.84;127.16;-0.32077;1.00000
1295.24;127.6;-0.31870;1.00000
1299.23;128;-0.31651;1.00000